gameID,orig_gameID,repetition,acc_norm,rt_norm,bis,bis_baseline,version,trialNum,bis_relative,repetition_1
0051-e13f6f0c-ae9b-4976-8fcd-870cdb75f63f,0051-e13f6f0c-ae9b-4976-8fcd-870cdb75f63f,0,0.3165672763308258,2.9012683488386637,-2.584701072507838,-1.3010757732767837,refgame,1,-1.2836252992310542,1
0051-e13f6f0c-ae9b-4976-8fcd-870cdb75f63f,0051-e13f6f0c-ae9b-4976-8fcd-870cdb75f63f,0,0.3165672763308258,1.162875423837666,-0.8463081475068401,-1.3010757732767837,refgame,4,0.45476762576994356,1
0051-e13f6f0c-ae9b-4976-8fcd-870cdb75f63f,0051-e13f6f0c-ae9b-4976-8fcd-870cdb75f63f,0,0.3165672763308258,2.192239253649154,-1.8756719773183281,-1.3010757732767837,refgame,5,-0.5745962040415444,1
0051-e13f6f0c-ae9b-4976-8fcd-870cdb75f63f,0051-e13f6f0c-ae9b-4976-8fcd-870cdb75f63f,0,0.3165672763308258,0.214189172104965,0.10237810422586083,-1.3010757732767837,refgame,6,1.4034538775026446,1
0051-e13f6f0c-ae9b-4976-8fcd-870cdb75f63f,0051-e13f6f0c-ae9b-4976-8fcd-870cdb75f63f,1,0.3165672763308258,0.3435557228459884,-0.02698844651516258,-1.3010757732767837,refgame,9,1.274087326761621,2
0051-e13f6f0c-ae9b-4976-8fcd-870cdb75f63f,0051-e13f6f0c-ae9b-4976-8fcd-870cdb75f63f,1,0.3165672763308258,-0.12746878340905257,0.44403605973987836,-1.3010757732767837,refgame,10,1.745111833016662,2
0051-e13f6f0c-ae9b-4976-8fcd-870cdb75f63f,0051-e13f6f0c-ae9b-4976-8fcd-870cdb75f63f,1,0.3165672763308258,-0.6340324464245459,0.9505997227553717,-1.3010757732767837,refgame,11,2.2516754960321554,2
0051-e13f6f0c-ae9b-4976-8fcd-870cdb75f63f,0051-e13f6f0c-ae9b-4976-8fcd-870cdb75f63f,1,-3.0601503378646493,0.9956577930128149,-4.055808130877464,-1.3010757732767837,refgame,12,-2.7547323576006804,2
0051-e13f6f0c-ae9b-4976-8fcd-870cdb75f63f,0051-e13f6f0c-ae9b-4976-8fcd-870cdb75f63f,2,-3.0601503378646493,0.8246931993404073,-3.8848435372050565,-1.3010757732767837,refgame,13,-2.5837677639282726,3
0051-e13f6f0c-ae9b-4976-8fcd-870cdb75f63f,0051-e13f6f0c-ae9b-4976-8fcd-870cdb75f63f,2,0.3165672763308258,0.4152690188058631,-0.09870174247503727,-1.3010757732767837,refgame,14,1.2023740308017463,3
0051-e13f6f0c-ae9b-4976-8fcd-870cdb75f63f,0051-e13f6f0c-ae9b-4976-8fcd-870cdb75f63f,2,0.3165672763308258,-1.4727771673573107,1.7893444436881365,-1.3010757732767837,refgame,15,3.09042021696492,3
0051-e13f6f0c-ae9b-4976-8fcd-870cdb75f63f,0051-e13f6f0c-ae9b-4976-8fcd-870cdb75f63f,2,0.3165672763308258,1.3767846867333238,-1.060217410402498,-1.3010757732767837,refgame,16,0.24085836287428575,3
0051-e13f6f0c-ae9b-4976-8fcd-870cdb75f63f,0051-e13f6f0c-ae9b-4976-8fcd-870cdb75f63f,3,0.3165672763308258,-0.1279614040092267,0.44452868034005255,-1.3010757732767837,refgame,17,1.7456044536168362,4
0051-e13f6f0c-ae9b-4976-8fcd-870cdb75f63f,0051-e13f6f0c-ae9b-4976-8fcd-870cdb75f63f,3,0.3165672763308258,0.43554614698977423,-0.11897887065894841,-1.3010757732767837,refgame,18,1.1820969026178352,4
0051-e13f6f0c-ae9b-4976-8fcd-870cdb75f63f,0051-e13f6f0c-ae9b-4976-8fcd-870cdb75f63f,3,0.3165672763308258,-0.2574812066718074,0.5740484830026332,-1.3010757732767837,refgame,19,1.8751242562794168,4
0051-e13f6f0c-ae9b-4976-8fcd-870cdb75f63f,0051-e13f6f0c-ae9b-4976-8fcd-870cdb75f63f,3,0.3165672763308258,-0.010222974041147921,0.32679025037197373,-1.3010757732767837,refgame,20,1.6278660236487574,4
0051-e13f6f0c-ae9b-4976-8fcd-870cdb75f63f,0051-e13f6f0c-ae9b-4976-8fcd-870cdb75f63f,4,0.3165672763308258,-1.162279598771773,1.4788468751025987,-1.3010757732767837,refgame,21,2.779922648379382,5
0051-e13f6f0c-ae9b-4976-8fcd-870cdb75f63f,0051-e13f6f0c-ae9b-4976-8fcd-870cdb75f63f,4,0.3165672763308258,-0.29119567482093167,0.6077629511517575,-1.3010757732767837,refgame,22,1.9088387244285412,5
0051-e13f6f0c-ae9b-4976-8fcd-870cdb75f63f,0051-e13f6f0c-ae9b-4976-8fcd-870cdb75f63f,4,0.3165672763308258,-0.5740412408937484,0.8906085172245742,-1.3010757732767837,refgame,23,2.191684290501358,5
0051-e13f6f0c-ae9b-4976-8fcd-870cdb75f63f,0051-e13f6f0c-ae9b-4976-8fcd-870cdb75f63f,4,0.3165672763308258,-0.2277313250072019,0.5442986013380278,-1.3010757732767837,refgame,24,1.8453743746148115,5
0051-e13f6f0c-ae9b-4976-8fcd-870cdb75f63f,0051-e13f6f0c-ae9b-4976-8fcd-870cdb75f63f,5,0.3165672763308258,-0.18217522135746417,0.49874249768829,-1.3010757732767837,refgame,25,1.7998182709650736,6
0051-e13f6f0c-ae9b-4976-8fcd-870cdb75f63f,0051-e13f6f0c-ae9b-4976-8fcd-870cdb75f63f,5,0.3165672763308258,0.368075493623028,-0.051508217292202174,-1.3010757732767837,refgame,26,1.2495675559845816,6
0051-e13f6f0c-ae9b-4976-8fcd-870cdb75f63f,0051-e13f6f0c-ae9b-4976-8fcd-870cdb75f63f,5,0.3165672763308258,-0.7641057074811082,1.080672983811934,-1.3010757732767837,refgame,27,2.381748757088718,6
0051-e13f6f0c-ae9b-4976-8fcd-870cdb75f63f,0051-e13f6f0c-ae9b-4976-8fcd-870cdb75f63f,5,0.3165672763308258,-0.7901035814476774,1.1066708577785032,-1.3010757732767837,refgame,28,2.4077466310552866,6
0051-e13f6f0c-ae9b-4976-8fcd-870cdb75f63f,0051-e13f6f0c-ae9b-4976-8fcd-870cdb75f63f,6,0.3165672763308258,-0.8798041865260894,1.196371462856915,-1.3010757732767837,refgame,29,2.4974472361336986,7
0051-e13f6f0c-ae9b-4976-8fcd-870cdb75f63f,0051-e13f6f0c-ae9b-4976-8fcd-870cdb75f63f,6,0.3165672763308258,0.30616358117663,0.010403695154195813,-1.3010757732767837,refgame,30,1.3114794684309796,7
0051-e13f6f0c-ae9b-4976-8fcd-870cdb75f63f,0051-e13f6f0c-ae9b-4976-8fcd-870cdb75f63f,6,0.3165672763308258,-1.4272903068029732,1.743857583133799,-1.3010757732767837,refgame,31,3.0449333564105827,7
0051-e13f6f0c-ae9b-4976-8fcd-870cdb75f63f,0051-e13f6f0c-ae9b-4976-8fcd-870cdb75f63f,6,0.3165672763308258,-0.47548616307051766,0.7920534394013434,-1.3010757732767837,refgame,32,2.093129212678127,7
0051-e13f6f0c-ae9b-4976-8fcd-870cdb75f63f,0051-e13f6f0c-ae9b-4976-8fcd-870cdb75f63f,7,-3.0601503378646493,0.7377398962766546,-3.797890234141304,-1.3010757732767837,refgame,36,-2.4968144608645204,8
0051-e13f6f0c-ae9b-4976-8fcd-870cdb75f63f,0051-e13f6f0c-ae9b-4976-8fcd-870cdb75f63f,7,0.3165672763308258,-0.824511851304068,1.1410791276348937,-1.3010757732767837,refgame,37,2.442154900911677,8
0051-e13f6f0c-ae9b-4976-8fcd-870cdb75f63f,0051-e13f6f0c-ae9b-4976-8fcd-870cdb75f63f,7,0.3165672763308258,-1.1235611190965602,1.440128395427386,-1.3010757732767837,refgame,39,2.7412041687041695,8
0051-e13f6f0c-ae9b-4976-8fcd-870cdb75f63f,0051-e13f6f0c-ae9b-4976-8fcd-870cdb75f63f,7,0.3165672763308258,-0.9218277787417236,1.2383950550725493,-1.3010757732767837,refgame,40,2.539470828349333,8
0066-9ca1584c-594c-4bc1-bb44-603c937663e1,9662-69da656f-884a-416f-a492-59c9f6a13a34,0,1.7047688371320402,-0.022203955520057165,1.7269727926520975,-0.45121298007140476,yoked,2,2.178185772723502,1
0066-9ca1584c-594c-4bc1-bb44-603c937663e1,9662-69da656f-884a-416f-a492-59c9f6a13a34,0,-0.5682562790440133,0.5813629169300508,-1.149619195974064,-0.45121298007140476,yoked,5,-0.6984062159026593,1
0066-9ca1584c-594c-4bc1-bb44-603c937663e1,9662-69da656f-884a-416f-a492-59c9f6a13a34,0,-0.5682562790440133,-0.0786785606580549,-0.4895777183859584,-0.45121298007140476,yoked,6,-0.03836473831455367,1
0066-9ca1584c-594c-4bc1-bb44-603c937663e1,9662-69da656f-884a-416f-a492-59c9f6a13a34,0,-0.5682562790440133,1.3243715195336743,-1.8926277985776876,-0.45121298007140476,yoked,7,-1.4414148185062827,1
0066-9ca1584c-594c-4bc1-bb44-603c937663e1,9662-69da656f-884a-416f-a492-59c9f6a13a34,1,-0.5682562790440133,0.12462591814319303,-0.6928821971872063,-0.45121298007140476,yoked,9,-0.24166921711580158,2
0066-9ca1584c-594c-4bc1-bb44-603c937663e1,9662-69da656f-884a-416f-a492-59c9f6a13a34,1,-0.5682562790440133,0.6870177672260273,-1.2552740462700407,-0.45121298007140476,yoked,10,-0.8040610661986359,2
0066-9ca1584c-594c-4bc1-bb44-603c937663e1,9662-69da656f-884a-416f-a492-59c9f6a13a34,1,-0.5682562790440133,-0.10726961107701338,-0.46098666796699994,-0.45121298007140476,yoked,11,-0.009773687895595184,2
0066-9ca1584c-594c-4bc1-bb44-603c937663e1,9662-69da656f-884a-416f-a492-59c9f6a13a34,1,-0.5682562790440133,-0.1319679929176115,-0.4362882861264018,-0.45121298007140476,yoked,12,0.014924693945002954,2
0066-9ca1584c-594c-4bc1-bb44-603c937663e1,9662-69da656f-884a-416f-a492-59c9f6a13a34,2,1.7047688371320402,-0.43525602479037867,2.1400248619224187,-0.45121298007140476,yoked,13,2.5912378419938236,3
0066-9ca1584c-594c-4bc1-bb44-603c937663e1,9662-69da656f-884a-416f-a492-59c9f6a13a34,2,-0.5682562790440133,-0.31875650091720725,-0.24949977812680607,-0.45121298007140476,yoked,14,0.20171320194459869,3
0066-9ca1584c-594c-4bc1-bb44-603c937663e1,9662-69da656f-884a-416f-a492-59c9f6a13a34,2,-0.5682562790440133,-0.6327195266260054,0.06446324758199207,-0.45121298007140476,yoked,16,0.5156762276533968,3
0066-9ca1584c-594c-4bc1-bb44-603c937663e1,9662-69da656f-884a-416f-a492-59c9f6a13a34,2,-0.5682562790440133,1.7032639708437527,-2.2715202498877662,-0.45121298007140476,yoked,17,-1.8203072698163614,3
0066-9ca1584c-594c-4bc1-bb44-603c937663e1,9662-69da656f-884a-416f-a492-59c9f6a13a34,3,-0.5682562790440133,-0.5360477298183425,-0.032208549225670846,-0.45121298007140476,yoked,18,0.4190044308457339,4
0066-9ca1584c-594c-4bc1-bb44-603c937663e1,9662-69da656f-884a-416f-a492-59c9f6a13a34,3,-0.5682562790440133,2.5090745248328354,-3.0773308038768485,-0.45121298007140476,yoked,19,-2.6261178238054437,4
0066-9ca1584c-594c-4bc1-bb44-603c937663e1,9662-69da656f-884a-416f-a492-59c9f6a13a34,3,-0.5682562790440133,-0.5348855156929927,-0.03337076335102063,-0.45121298007140476,yoked,20,0.41784221672038413,4
0066-9ca1584c-594c-4bc1-bb44-603c937663e1,9662-69da656f-884a-416f-a492-59c9f6a13a34,3,1.7047688371320402,-0.8258039225616538,2.530572759693694,-0.45121298007140476,yoked,21,2.981785739765099,4
0066-9ca1584c-594c-4bc1-bb44-603c937663e1,9662-69da656f-884a-416f-a492-59c9f6a13a34,4,-0.5682562790440133,-0.8334037466995472,0.2651474676555339,-0.45121298007140476,yoked,22,0.7163604477269386,5
0066-9ca1584c-594c-4bc1-bb44-603c937663e1,9662-69da656f-884a-416f-a492-59c9f6a13a34,4,-0.5682562790440133,2.2628726071431102,-2.8311288861871233,-0.45121298007140476,yoked,24,-2.3799159061157185,5
0066-9ca1584c-594c-4bc1-bb44-603c937663e1,9662-69da656f-884a-416f-a492-59c9f6a13a34,4,1.7047688371320402,-1.5191454085369533,3.2239142456689933,-0.45121298007140476,yoked,25,3.675127225740398,5
0066-9ca1584c-594c-4bc1-bb44-603c937663e1,9662-69da656f-884a-416f-a492-59c9f6a13a34,4,-0.5682562790440133,-1.1106366618241053,0.5423803827800919,-0.45121298007140476,yoked,26,0.9935933628514967,5
0066-9ca1584c-594c-4bc1-bb44-603c937663e1,9662-69da656f-884a-416f-a492-59c9f6a13a34,5,-0.5682562790440133,-0.684527415423576,0.11627113637956266,-0.45121298007140476,yoked,27,0.5674841164509674,6
0066-9ca1584c-594c-4bc1-bb44-603c937663e1,9662-69da656f-884a-416f-a492-59c9f6a13a34,5,-0.5682562790440133,-1.0036892858832849,0.43543300683927155,-0.45121298007140476,yoked,28,0.8866459869106763,6
0066-9ca1584c-594c-4bc1-bb44-603c937663e1,9662-69da656f-884a-416f-a492-59c9f6a13a34,5,-0.5682562790440133,1.587824351791407,-2.1560806308354206,-0.45121298007140476,yoked,30,-1.7048676507640157,6
0066-9ca1584c-594c-4bc1-bb44-603c937663e1,9662-69da656f-884a-416f-a492-59c9f6a13a34,5,-0.5682562790440133,1.4043748464109553,-1.9726311254549687,-0.45121298007140476,yoked,31,-1.521418145383564,6
0066-9ca1584c-594c-4bc1-bb44-603c937663e1,9662-69da656f-884a-416f-a492-59c9f6a13a34,6,1.7047688371320402,-0.2517854889017242,1.9565543260337643,-0.45121298007140476,yoked,32,2.407767306105169,7
0066-9ca1584c-594c-4bc1-bb44-603c937663e1,9662-69da656f-884a-416f-a492-59c9f6a13a34,6,-0.5682562790440133,-0.7743191054357994,0.20606282639178608,-0.45121298007140476,yoked,33,0.6572758064631908,7
0066-9ca1584c-594c-4bc1-bb44-603c937663e1,9662-69da656f-884a-416f-a492-59c9f6a13a34,6,1.7047688371320402,-0.5383733440691166,2.243142181201157,-0.45121298007140476,yoked,34,2.694355161272562,7
0066-9ca1584c-594c-4bc1-bb44-603c937663e1,9662-69da656f-884a-416f-a492-59c9f6a13a34,6,-0.5682562790440133,-0.31657554210843286,-0.25168073693558046,-0.45121298007140476,yoked,35,0.1995322431358243,7
0066-9ca1584c-594c-4bc1-bb44-603c937663e1,9662-69da656f-884a-416f-a492-59c9f6a13a34,7,1.7047688371320402,-0.17562423174939198,1.880393068881432,-0.45121298007140476,yoked,37,2.3316060489528367,8
0066-9ca1584c-594c-4bc1-bb44-603c937663e1,9662-69da656f-884a-416f-a492-59c9f6a13a34,7,-0.5682562790440133,-0.08784249030052427,-0.48041378874348906,-0.45121298007140476,yoked,41,-0.0292008086720843,8
0066-9ca1584c-594c-4bc1-bb44-603c937663e1,9662-69da656f-884a-416f-a492-59c9f6a13a34,7,-0.5682562790440133,-0.524443330295836,-0.043812948748177316,-0.45121298007140476,yoked,42,0.40740003132322744,8
0066-9ca1584c-594c-4bc1-bb44-603c937663e1,9662-69da656f-884a-416f-a492-59c9f6a13a34,7,1.7047688371320402,-0.7408330310473481,2.4456018681793883,-0.45121298007140476,yoked,44,2.896814848250793,8
0073-ccc59450-db04-425b-97de-165879981385,2391-14c2ae6d-73d2-4e2a-b4e8-d9cdedbd393c,0,0.8680260551145138,-0.05451495933442799,0.9225410144489418,0.5221448897999936,scrambled40,2,0.40039612464894814,1
0073-ccc59450-db04-425b-97de-165879981385,2391-14c2ae6d-73d2-4e2a-b4e8-d9cdedbd393c,0,0.8680260551145138,-0.0912770444781057,0.9593030995926195,0.5221448897999936,scrambled40,3,0.4371582097926259,1
0073-ccc59450-db04-425b-97de-165879981385,2391-14c2ae6d-73d2-4e2a-b4e8-d9cdedbd393c,0,-1.1160334994329462,-0.22795091014781838,-0.8880825892851278,0.5221448897999936,scrambled40,5,-1.4102274790851215,1
0073-ccc59450-db04-425b-97de-165879981385,2391-14c2ae6d-73d2-4e2a-b4e8-d9cdedbd393c,0,0.8680260551145138,-0.22679197932904852,1.0948180344435623,0.5221448897999936,scrambled40,8,0.5726731446435687,1
0073-ccc59450-db04-425b-97de-165879981385,9329-3901b756-7cdb-4061-b8b3-41e6e2be20fd,1,-1.1160334994329462,0.8227002145526493,-1.9387337139855956,0.5221448897999936,scrambled40,9,-2.460878603785589,2
0073-ccc59450-db04-425b-97de-165879981385,9329-3901b756-7cdb-4061-b8b3-41e6e2be20fd,1,-1.1160334994329462,0.24217109874101833,-1.3582045981739646,0.5221448897999936,scrambled40,10,-1.8803494879739582,2
0073-ccc59450-db04-425b-97de-165879981385,9329-3901b756-7cdb-4061-b8b3-41e6e2be20fd,1,0.8680260551145138,0.05050373116678697,0.8175223239477268,0.5221448897999936,scrambled40,11,0.2953774341477332,2
0073-ccc59450-db04-425b-97de-165879981385,9329-3901b756-7cdb-4061-b8b3-41e6e2be20fd,1,-1.1160334994329462,0.9559325736175681,-2.0719660730505143,0.5221448897999936,scrambled40,12,-2.594110962850508,2
0073-ccc59450-db04-425b-97de-165879981385,9662-69da656f-884a-416f-a492-59c9f6a13a34,2,0.8680260551145138,-0.09239646440464414,0.9604225195191579,0.5221448897999936,scrambled40,14,0.4382776297191643,3
0073-ccc59450-db04-425b-97de-165879981385,9662-69da656f-884a-416f-a492-59c9f6a13a34,2,0.8680260551145138,-1.3725525343287892,2.2405785894433032,0.5221448897999936,scrambled40,15,1.7184336996433096,3
0073-ccc59450-db04-425b-97de-165879981385,9662-69da656f-884a-416f-a492-59c9f6a13a34,2,0.8680260551145138,-0.4472672952203325,1.3152933503348463,0.5221448897999936,scrambled40,16,0.7931484605348527,3
0073-ccc59450-db04-425b-97de-165879981385,9662-69da656f-884a-416f-a492-59c9f6a13a34,2,-1.1160334994329462,-0.022491967720265262,-1.0935415317126809,0.5221448897999936,scrambled40,17,-1.6156864215126745,3
0073-ccc59450-db04-425b-97de-165879981385,1696-c4c60e8e-a818-42cf-8cef-9b5466d277a3,3,0.8680260551145138,-0.22795091014781838,1.0959769652623321,0.5221448897999936,scrambled40,18,0.5738320754623385,4
0073-ccc59450-db04-425b-97de-165879981385,1696-c4c60e8e-a818-42cf-8cef-9b5466d277a3,3,-1.1160334994329462,0.9258528621193046,-2.0418863615522507,0.5221448897999936,scrambled40,19,-2.5640312513522443,4
0073-ccc59450-db04-425b-97de-165879981385,1696-c4c60e8e-a818-42cf-8cef-9b5466d277a3,3,0.8680260551145138,-1.4732707383854768,2.341296793499991,0.5221448897999936,scrambled40,20,1.8191519036999972,4
0073-ccc59450-db04-425b-97de-165879981385,1696-c4c60e8e-a818-42cf-8cef-9b5466d277a3,3,-1.1160334994329462,-1.1564723765162142,0.04043887708326799,0.5221448897999936,scrambled40,22,-0.48170601271672564,4
0073-ccc59450-db04-425b-97de-165879981385,7940-e30c3a20-dd99-4efc-ae92-f650a7f1d6e6,4,-1.1160334994329462,-0.7201747669290419,-0.39585873250390424,0.5221448897999936,scrambled40,23,-0.9180036223038979,5
0073-ccc59450-db04-425b-97de-165879981385,7940-e30c3a20-dd99-4efc-ae92-f650a7f1d6e6,4,-1.1160334994329462,1.6548883830454786,-2.770921882478425,0.5221448897999936,scrambled40,24,-3.2930667722784186,5
0073-ccc59450-db04-425b-97de-165879981385,7940-e30c3a20-dd99-4efc-ae92-f650a7f1d6e6,4,-1.1160334994329462,0.23599999681044423,-1.3520334962433904,0.5221448897999936,scrambled40,25,-1.874178386043384,5
0073-ccc59450-db04-425b-97de-165879981385,7940-e30c3a20-dd99-4efc-ae92-f650a7f1d6e6,4,-1.1160334994329462,-1.1403354331763809,0.0243019337434347,0.5221448897999936,scrambled40,26,-0.4978429560565589,5
0073-ccc59450-db04-425b-97de-165879981385,6378-75ca9ee2-ed38-4434-b0bc-00c039f29b57,5,-1.1160334994329462,0.11685832060236756,-1.2328918200353138,0.5221448897999936,scrambled40,27,-1.7550367098353075,6
0073-ccc59450-db04-425b-97de-165879981385,6378-75ca9ee2-ed38-4434-b0bc-00c039f29b57,5,0.8680260551145138,0.4278157236486279,0.4402103314658859,0.5221448897999936,scrambled40,28,-0.08193455833410773,6
0073-ccc59450-db04-425b-97de-165879981385,6378-75ca9ee2-ed38-4434-b0bc-00c039f29b57,5,-1.1160334994329462,3.292267381935734,-4.40830088136868,0.5221448897999936,scrambled40,29,-4.9304457711686736,6
0073-ccc59450-db04-425b-97de-165879981385,6378-75ca9ee2-ed38-4434-b0bc-00c039f29b57,5,0.8680260551145138,0.1432986382137726,0.7247274169007412,0.5221448897999936,scrambled40,31,0.20258252710074753,6
0073-ccc59450-db04-425b-97de-165879981385,5598-e6b25d85-7c51-49f0-9529-c4c42d15b233,6,0.8680260551145138,-1.3725525343287892,2.2405785894433032,0.5221448897999936,scrambled40,32,1.7184336996433096,7
0073-ccc59450-db04-425b-97de-165879981385,5598-e6b25d85-7c51-49f0-9529-c4c42d15b233,6,0.8680260551145138,-0.36837758646791124,1.236403641582425,0.5221448897999936,scrambled40,33,0.7142587517824315,7
0073-ccc59450-db04-425b-97de-165879981385,5598-e6b25d85-7c51-49f0-9529-c4c42d15b233,6,0.8680260551145138,-1.1417996772358014,2.0098257323503153,0.5221448897999936,scrambled40,34,1.4876808425503216,7
0073-ccc59450-db04-425b-97de-165879981385,5598-e6b25d85-7c51-49f0-9529-c4c42d15b233,6,0.8680260551145138,0.6246571124822923,0.24336894263222153,0.5221448897999936,scrambled40,35,-0.2787759471677721,7
0073-ccc59450-db04-425b-97de-165879981385,0786-9d8492b6-e57d-4cb6-a44e-a79bccb681f4,7,0.8680260551145138,0.8781118622322394,-0.010085807117725554,0.5221448897999936,scrambled40,37,-0.5322306969177192,8
0073-ccc59450-db04-425b-97de-165879981385,0786-9d8492b6-e57d-4cb6-a44e-a79bccb681f4,7,0.8680260551145138,1.1292482672498834,-0.26122221213536956,0.5221448897999936,scrambled40,41,-0.7833671019353632,8
0073-ccc59450-db04-425b-97de-165879981385,0786-9d8492b6-e57d-4cb6-a44e-a79bccb681f4,7,-1.1160334994329462,-0.2558688751350957,-0.8601646242978505,0.5221448897999936,scrambled40,42,-1.382309514097844,8
0073-ccc59450-db04-425b-97de-165879981385,0786-9d8492b6-e57d-4cb6-a44e-a79bccb681f4,7,0.8680260551145138,-1.108260113132275,1.9762861682467887,0.5221448897999936,scrambled40,43,1.454141278446795,8
0136-f430177f-07bf-4f35-917d-771a577401d9,0724-1a59371c-6fe6-4d6d-a987-db533e75a5e5,0,0.37201079743186033,2.2079281618568944,-1.8359173644250342,-0.7466895498503847,yoked,0,-1.0892278145746495,1
0136-f430177f-07bf-4f35-917d-771a577401d9,0724-1a59371c-6fe6-4d6d-a987-db533e75a5e5,0,0.37201079743186033,0.7495153685552693,-0.377504571123409,-0.7466895498503847,yoked,4,0.3691849787269757,1
0136-f430177f-07bf-4f35-917d-771a577401d9,0724-1a59371c-6fe6-4d6d-a987-db533e75a5e5,0,-2.6040755820230226,-0.38212861097538936,-2.2219469710476334,-0.7466895498503847,yoked,5,-1.4752574211972487,1
0136-f430177f-07bf-4f35-917d-771a577401d9,0724-1a59371c-6fe6-4d6d-a987-db533e75a5e5,0,0.37201079743186033,-1.0765999097626817,1.448610707194542,-0.7466895498503847,yoked,7,2.1953002570449267,1
0136-f430177f-07bf-4f35-917d-771a577401d9,0724-1a59371c-6fe6-4d6d-a987-db533e75a5e5,1,0.37201079743186033,-0.4212299838797738,0.7932407813116341,-0.7466895498503847,yoked,9,1.5399303311620187,2
0136-f430177f-07bf-4f35-917d-771a577401d9,0724-1a59371c-6fe6-4d6d-a987-db533e75a5e5,1,0.37201079743186033,-0.9674620572294188,1.339472854661279,-0.7466895498503847,yoked,10,2.086162404511664,2
0136-f430177f-07bf-4f35-917d-771a577401d9,0724-1a59371c-6fe6-4d6d-a987-db533e75a5e5,1,0.37201079743186033,0.6678750623216756,-0.29586426488981526,-0.7466895498503847,yoked,11,0.45082528496056945,2
0136-f430177f-07bf-4f35-917d-771a577401d9,0724-1a59371c-6fe6-4d6d-a987-db533e75a5e5,1,0.37201079743186033,0.3455103311693019,0.02650046626255842,-0.7466895498503847,yoked,12,0.7731900161129431,2
0136-f430177f-07bf-4f35-917d-771a577401d9,0724-1a59371c-6fe6-4d6d-a987-db533e75a5e5,2,0.37201079743186033,-0.9778933850825282,1.3499041825143885,-0.7466895498503847,yoked,13,2.096593732364773,3
0136-f430177f-07bf-4f35-917d-771a577401d9,0724-1a59371c-6fe6-4d6d-a987-db533e75a5e5,2,0.37201079743186033,0.04613646927701322,0.3258743281548471,-0.7466895498503847,yoked,14,1.0725638780052318,3
0136-f430177f-07bf-4f35-917d-771a577401d9,0724-1a59371c-6fe6-4d6d-a987-db533e75a5e5,2,0.37201079743186033,1.2369108588600772,-0.864900061428217,-0.7466895498503847,yoked,15,-0.11821051157783224,3
0136-f430177f-07bf-4f35-917d-771a577401d9,0724-1a59371c-6fe6-4d6d-a987-db533e75a5e5,2,0.37201079743186033,0.26477798327353974,0.10723281415832059,-0.7466895498503847,yoked,16,0.8539223640087052,3
0136-f430177f-07bf-4f35-917d-771a577401d9,0724-1a59371c-6fe6-4d6d-a987-db533e75a5e5,3,0.37201079743186033,-1.3744314654558043,1.7464422628876646,-0.7466895498503847,yoked,18,2.4931318127380493,4
0136-f430177f-07bf-4f35-917d-771a577401d9,0724-1a59371c-6fe6-4d6d-a987-db533e75a5e5,3,0.37201079743186033,0.11722252369214944,0.2547882737397109,-0.7466895498503847,yoked,19,1.0014778235900956,4
0136-f430177f-07bf-4f35-917d-771a577401d9,0724-1a59371c-6fe6-4d6d-a987-db533e75a5e5,3,-2.6040755820230226,1.1501263774616857,-3.7542019594847083,-0.7466895498503847,yoked,20,-3.0075124096343235,4
0136-f430177f-07bf-4f35-917d-771a577401d9,0724-1a59371c-6fe6-4d6d-a987-db533e75a5e5,3,-2.6040755820230226,1.3985759814441696,-4.002651563467192,-0.7466895498503847,yoked,21,-3.2559620136168075,4
0136-f430177f-07bf-4f35-917d-771a577401d9,0724-1a59371c-6fe6-4d6d-a987-db533e75a5e5,4,0.37201079743186033,-0.03757293550615519,0.40958373293801553,-0.7466895498503847,yoked,23,1.1562732827884004,5
0136-f430177f-07bf-4f35-917d-771a577401d9,0724-1a59371c-6fe6-4d6d-a987-db533e75a5e5,4,0.37201079743186033,1.1552844463464886,-0.7832736489146284,-0.7466895498503847,yoked,24,-0.03658409906424365,5
0136-f430177f-07bf-4f35-917d-771a577401d9,0724-1a59371c-6fe6-4d6d-a987-db533e75a5e5,4,0.37201079743186033,0.4193724288588635,-0.04736163142700317,-0.7466895498503847,yoked,25,0.6993279184233816,5
0136-f430177f-07bf-4f35-917d-771a577401d9,0724-1a59371c-6fe6-4d6d-a987-db533e75a5e5,4,0.37201079743186033,-1.3503115490893762,1.7223223465212365,-0.7466895498503847,yoked,26,2.4690118963716214,5
0136-f430177f-07bf-4f35-917d-771a577401d9,0724-1a59371c-6fe6-4d6d-a987-db533e75a5e5,5,0.37201079743186033,0.5505334840361157,-0.17852268660425535,-0.7466895498503847,yoked,27,0.5681668632461294,6
0136-f430177f-07bf-4f35-917d-771a577401d9,0724-1a59371c-6fe6-4d6d-a987-db533e75a5e5,5,0.37201079743186033,-1.4719949051757948,1.844005702607655,-0.7466895498503847,yoked,29,2.5906952524580396,6
0136-f430177f-07bf-4f35-917d-771a577401d9,0724-1a59371c-6fe6-4d6d-a987-db533e75a5e5,5,0.37201079743186033,-0.25285171062691064,0.624862508058771,-0.7466895498503847,yoked,30,1.3715520579091556,6
0136-f430177f-07bf-4f35-917d-771a577401d9,0724-1a59371c-6fe6-4d6d-a987-db533e75a5e5,5,0.37201079743186033,0.4536045596448731,-0.08159376221301279,-0.7466895498503847,yoked,31,0.665095787637372,6
0136-f430177f-07bf-4f35-917d-771a577401d9,0724-1a59371c-6fe6-4d6d-a987-db533e75a5e5,6,-2.6040755820230226,-1.2749763033498165,-1.329099278673206,-0.7466895498503847,yoked,32,-0.5824097288228214,7
0136-f430177f-07bf-4f35-917d-771a577401d9,0724-1a59371c-6fe6-4d6d-a987-db533e75a5e5,6,0.37201079743186033,-0.5811287848672821,0.9531395822991424,-0.7466895498503847,yoked,33,1.6998291321495271,7
0136-f430177f-07bf-4f35-917d-771a577401d9,0724-1a59371c-6fe6-4d6d-a987-db533e75a5e5,6,0.37201079743186033,-1.5449241871528743,1.9169349845847345,-0.7466895498503847,yoked,34,2.6636245344351193,7
0136-f430177f-07bf-4f35-917d-771a577401d9,0724-1a59371c-6fe6-4d6d-a987-db533e75a5e5,6,0.37201079743186033,0.32628454753239905,0.04572624989946128,-0.7466895498503847,yoked,35,0.792415799749846,7
0136-f430177f-07bf-4f35-917d-771a577401d9,0724-1a59371c-6fe6-4d6d-a987-db533e75a5e5,7,0.37201079743186033,0.12794534650046108,0.24406545093139925,-0.7466895498503847,yoked,37,0.990755000781784,8
0136-f430177f-07bf-4f35-917d-771a577401d9,0724-1a59371c-6fe6-4d6d-a987-db533e75a5e5,7,0.37201079743186033,-0.005627303704501564,0.37763810113636187,-0.7466895498503847,yoked,41,1.1243276509867466,8
0136-f430177f-07bf-4f35-917d-771a577401d9,0724-1a59371c-6fe6-4d6d-a987-db533e75a5e5,7,0.37201079743186033,1.6939473142069807,-1.3219365167751205,-0.7466895498503847,yoked,43,-0.5752469669247358,8
0136-f430177f-07bf-4f35-917d-771a577401d9,0724-1a59371c-6fe6-4d6d-a987-db533e75a5e5,7,0.37201079743186033,-1.1924181531795428,1.564428950611403,-0.7466895498503847,yoked,44,2.311118500461788,8
0232-52e2508f-1993-48fa-8bb3-3d1bb74dfc40,0232-52e2508f-1993-48fa-8bb3-3d1bb74dfc40,0,-2.6040755820230226,-2.7071445088130557,0.1030689267900331,-1.3136933474033832,refgame,1,1.4167622741934163,1
0232-52e2508f-1993-48fa-8bb3-3d1bb74dfc40,0232-52e2508f-1993-48fa-8bb3-3d1bb74dfc40,0,-2.6040755820230226,1.0665992843851761,-3.6706748664081985,-1.3136933474033832,refgame,3,-2.3569815190048153,1
0232-52e2508f-1993-48fa-8bb3-3d1bb74dfc40,0232-52e2508f-1993-48fa-8bb3-3d1bb74dfc40,0,-2.6040755820230226,0.005933507537773212,-2.610009089560796,-1.3136933474033832,refgame,7,-1.2963157421574127,1
0232-52e2508f-1993-48fa-8bb3-3d1bb74dfc40,0232-52e2508f-1993-48fa-8bb3-3d1bb74dfc40,0,0.37201079743186033,-0.5508308421335733,0.9228416395654335,-1.3136933474033832,refgame,8,2.2365349869688167,1
0232-52e2508f-1993-48fa-8bb3-3d1bb74dfc40,0232-52e2508f-1993-48fa-8bb3-3d1bb74dfc40,1,-2.6040755820230226,1.175587249757405,-3.7796628317804277,-1.3136933474033832,refgame,9,-2.4659694843770446,2
0232-52e2508f-1993-48fa-8bb3-3d1bb74dfc40,0232-52e2508f-1993-48fa-8bb3-3d1bb74dfc40,1,0.37201079743186033,0.5923947917980511,-0.22038399436619077,-1.3136933474033832,refgame,10,1.0933093530371925,2
0232-52e2508f-1993-48fa-8bb3-3d1bb74dfc40,0232-52e2508f-1993-48fa-8bb3-3d1bb74dfc40,1,0.37201079743186033,-0.06845319586296518,0.4404639932948255,-1.3136933474033832,refgame,11,1.7541573406982087,2
0232-52e2508f-1993-48fa-8bb3-3d1bb74dfc40,0232-52e2508f-1993-48fa-8bb3-3d1bb74dfc40,1,0.37201079743186033,1.133406504928039,-0.7613957074961788,-1.3136933474033832,refgame,12,0.5522976399072044,2
0232-52e2508f-1993-48fa-8bb3-3d1bb74dfc40,0232-52e2508f-1993-48fa-8bb3-3d1bb74dfc40,2,0.37201079743186033,0.5937378325386417,-0.22172703510678132,-1.3136933474033832,refgame,13,1.091966312296602,3
0232-52e2508f-1993-48fa-8bb3-3d1bb74dfc40,0232-52e2508f-1993-48fa-8bb3-3d1bb74dfc40,2,0.37201079743186033,1.2133153214630268,-0.8413045240311665,-1.3136933474033832,refgame,14,0.47238882337221666,3
0232-52e2508f-1993-48fa-8bb3-3d1bb74dfc40,0232-52e2508f-1993-48fa-8bb3-3d1bb74dfc40,2,0.37201079743186033,-0.6469966720389182,1.0190074694707785,-1.3136933474033832,refgame,15,2.3327008168741616,3
0232-52e2508f-1993-48fa-8bb3-3d1bb74dfc40,0232-52e2508f-1993-48fa-8bb3-3d1bb74dfc40,2,0.37201079743186033,-0.2636196192571163,0.6356304166889766,-1.3136933474033832,refgame,16,1.9493237640923597,3
0232-52e2508f-1993-48fa-8bb3-3d1bb74dfc40,0232-52e2508f-1993-48fa-8bb3-3d1bb74dfc40,3,0.37201079743186033,-0.1681975919733649,0.5402083894052252,-1.3136933474033832,refgame,17,1.8539017368086084,4
0232-52e2508f-1993-48fa-8bb3-3d1bb74dfc40,0232-52e2508f-1993-48fa-8bb3-3d1bb74dfc40,3,0.37201079743186033,0.49902776720824665,-0.12701696977638632,-1.3136933474033832,refgame,18,1.1866763776269968,4
0232-52e2508f-1993-48fa-8bb3-3d1bb74dfc40,0232-52e2508f-1993-48fa-8bb3-3d1bb74dfc40,3,0.37201079743186033,1.8286846603489337,-1.4566738629170735,-1.3136933474033832,refgame,19,-0.1429805155136903,4
0232-52e2508f-1993-48fa-8bb3-3d1bb74dfc40,0232-52e2508f-1993-48fa-8bb3-3d1bb74dfc40,3,0.37201079743186033,-0.30024475903624936,0.6722555564681096,-1.3136933474033832,refgame,20,1.9859489038714928,4
0232-52e2508f-1993-48fa-8bb3-3d1bb74dfc40,0232-52e2508f-1993-48fa-8bb3-3d1bb74dfc40,4,0.37201079743186033,-0.2453641789340913,0.6173749763659516,-1.3136933474033832,refgame,21,1.9310683237693347,5
0232-52e2508f-1993-48fa-8bb3-3d1bb74dfc40,0232-52e2508f-1993-48fa-8bb3-3d1bb74dfc40,4,0.37201079743186033,-0.6918950060925849,1.0639058035244453,-1.3136933474033832,refgame,22,2.3775991509278285,5
0232-52e2508f-1993-48fa-8bb3-3d1bb74dfc40,0232-52e2508f-1993-48fa-8bb3-3d1bb74dfc40,4,0.37201079743186033,1.465370582744546,-1.0933597853126857,-1.3136933474033832,refgame,23,0.22033356209069743,5
0232-52e2508f-1993-48fa-8bb3-3d1bb74dfc40,0232-52e2508f-1993-48fa-8bb3-3d1bb74dfc40,4,0.37201079743186033,0.6648915227800132,-0.29288072534815285,-1.3136933474033832,refgame,24,1.0208126220552303,5
0232-52e2508f-1993-48fa-8bb3-3d1bb74dfc40,0232-52e2508f-1993-48fa-8bb3-3d1bb74dfc40,5,0.37201079743186033,-0.568354753845857,0.9403655512777174,-1.3136933474033832,refgame,25,2.2540588986811008,6
0232-52e2508f-1993-48fa-8bb3-3d1bb74dfc40,0232-52e2508f-1993-48fa-8bb3-3d1bb74dfc40,5,0.37201079743186033,-0.5570548302507446,0.929065627682605,-1.3136933474033832,refgame,26,2.242758975085988,6
0232-52e2508f-1993-48fa-8bb3-3d1bb74dfc40,0232-52e2508f-1993-48fa-8bb3-3d1bb74dfc40,5,0.37201079743186033,0.5690706394356314,-0.19705984200377108,-1.3136933474033832,refgame,27,1.1166335053996121,6
0232-52e2508f-1993-48fa-8bb3-3d1bb74dfc40,0232-52e2508f-1993-48fa-8bb3-3d1bb74dfc40,5,0.37201079743186033,1.4197683180070044,-1.0477575205751442,-1.3136933474033832,refgame,28,0.265935826828239,6
0232-52e2508f-1993-48fa-8bb3-3d1bb74dfc40,0232-52e2508f-1993-48fa-8bb3-3d1bb74dfc40,6,0.37201079743186033,-0.8274181687494532,1.1994289661813136,-1.3136933474033832,refgame,29,2.513122313584697,7
0232-52e2508f-1993-48fa-8bb3-3d1bb74dfc40,0232-52e2508f-1993-48fa-8bb3-3d1bb74dfc40,6,0.37201079743186033,0.660593719512584,-0.2885829220807237,-1.3136933474033832,refgame,30,1.0251104253226595,7
0232-52e2508f-1993-48fa-8bb3-3d1bb74dfc40,0232-52e2508f-1993-48fa-8bb3-3d1bb74dfc40,6,0.37201079743186033,-0.9512641155916197,1.32327491302348,-1.3136933474033832,refgame,31,2.636968260426863,7
0232-52e2508f-1993-48fa-8bb3-3d1bb74dfc40,0232-52e2508f-1993-48fa-8bb3-3d1bb74dfc40,6,0.37201079743186033,-0.28896246124610764,0.660973258677968,-1.3136933474033832,refgame,32,1.9746666060813511,7
0232-52e2508f-1993-48fa-8bb3-3d1bb74dfc40,0232-52e2508f-1993-48fa-8bb3-3d1bb74dfc40,7,0.37201079743186033,-1.1992831136917885,1.5712939111236488,-1.3136933474033832,refgame,33,2.884987258527032,8
0232-52e2508f-1993-48fa-8bb3-3d1bb74dfc40,0232-52e2508f-1993-48fa-8bb3-3d1bb74dfc40,7,0.37201079743186033,-1.6873071069953376,2.059317904427198,-1.3136933474033832,refgame,36,3.3730112518305813,8
0232-52e2508f-1993-48fa-8bb3-3d1bb74dfc40,0232-52e2508f-1993-48fa-8bb3-3d1bb74dfc40,7,0.37201079743186033,-0.6457688651851147,1.017779662616975,-1.3136933474033832,refgame,37,2.3314730100203582,8
0232-52e2508f-1993-48fa-8bb3-3d1bb74dfc40,0232-52e2508f-1993-48fa-8bb3-3d1bb74dfc40,7,0.37201079743186033,-0.520221912746999,0.8922327101788594,-1.3136933474033832,refgame,39,2.205926057582243,8
0286-a442ec93-ad78-42fa-b3e9-083da9a64c4d,0286-a442ec93-ad78-42fa-b3e9-083da9a64c4d,0,0.3165672763308258,0.14455375412634275,0.17201352220448307,-2.08378580094882,refgame,3,2.255799323153303,1
0286-a442ec93-ad78-42fa-b3e9-083da9a64c4d,0286-a442ec93-ad78-42fa-b3e9-083da9a64c4d,0,-3.0601503378646493,0.49766738652271114,-3.5578177243873603,-2.08378580094882,refgame,4,-1.4740319234385404,1
0286-a442ec93-ad78-42fa-b3e9-083da9a64c4d,0286-a442ec93-ad78-42fa-b3e9-083da9a64c4d,0,-3.0601503378646493,0.32011324470629676,-3.380263582570946,-2.08378580094882,refgame,6,-1.296477781622126,1
0286-a442ec93-ad78-42fa-b3e9-083da9a64c4d,0286-a442ec93-ad78-42fa-b3e9-083da9a64c4d,0,0.3165672763308258,1.885642695372279,-1.569075419041453,-2.08378580094882,refgame,8,0.5147103819073668,1
0286-a442ec93-ad78-42fa-b3e9-083da9a64c4d,0286-a442ec93-ad78-42fa-b3e9-083da9a64c4d,1,0.3165672763308258,1.1759453114175216,-0.8593780350866957,-2.08378580094882,refgame,9,1.2244077658621242,2
0286-a442ec93-ad78-42fa-b3e9-083da9a64c4d,0286-a442ec93-ad78-42fa-b3e9-083da9a64c4d,1,0.3165672763308258,-1.0064006151632499,1.3229678914940757,-2.08378580094882,refgame,10,3.4067536924428956,2
0286-a442ec93-ad78-42fa-b3e9-083da9a64c4d,0286-a442ec93-ad78-42fa-b3e9-083da9a64c4d,1,0.3165672763308258,-1.3980225922688232,1.714589868599649,-2.08378580094882,refgame,11,3.798375669548469,2
0286-a442ec93-ad78-42fa-b3e9-083da9a64c4d,0286-a442ec93-ad78-42fa-b3e9-083da9a64c4d,1,0.3165672763308258,1.66863722114896,-1.3520699448181341,-2.08378580094882,refgame,12,0.7317158561306858,2
0286-a442ec93-ad78-42fa-b3e9-083da9a64c4d,0286-a442ec93-ad78-42fa-b3e9-083da9a64c4d,2,0.3165672763308258,0.8314532344642996,-0.5148859581334738,-2.08378580094882,refgame,13,1.568899842815346,3
0286-a442ec93-ad78-42fa-b3e9-083da9a64c4d,0286-a442ec93-ad78-42fa-b3e9-083da9a64c4d,2,0.3165672763308258,-0.38488759873156453,0.7014548750623903,-2.08378580094882,refgame,14,2.7852406760112105,3
0286-a442ec93-ad78-42fa-b3e9-083da9a64c4d,0286-a442ec93-ad78-42fa-b3e9-083da9a64c4d,2,-3.0601503378646493,-1.2407383205937692,-1.81941201727088,-2.08378580094882,refgame,15,0.26437378367793984,3
0286-a442ec93-ad78-42fa-b3e9-083da9a64c4d,0286-a442ec93-ad78-42fa-b3e9-083da9a64c4d,2,0.3165672763308258,-0.12737532836146728,0.4439426046922931,-2.08378580094882,refgame,16,2.527728405641113,3
0286-a442ec93-ad78-42fa-b3e9-083da9a64c4d,0286-a442ec93-ad78-42fa-b3e9-083da9a64c4d,3,0.3165672763308258,0.5803358657893046,-0.2637685894584788,-2.08378580094882,refgame,17,1.8200172114903412,4
0286-a442ec93-ad78-42fa-b3e9-083da9a64c4d,0286-a442ec93-ad78-42fa-b3e9-083da9a64c4d,3,0.3165672763308258,-0.02015716483717281,0.3367244411679986,-2.08378580094882,refgame,18,2.4205102421168183,4
0286-a442ec93-ad78-42fa-b3e9-083da9a64c4d,0286-a442ec93-ad78-42fa-b3e9-083da9a64c4d,3,0.3165672763308258,0.6323470385931473,-0.3157797622623215,-2.08378580094882,refgame,19,1.7680060386864984,4
0286-a442ec93-ad78-42fa-b3e9-083da9a64c4d,0286-a442ec93-ad78-42fa-b3e9-083da9a64c4d,3,0.3165672763308258,-1.4837891976462094,1.8003564739770352,-2.08378580094882,refgame,20,3.884142274925855,4
0286-a442ec93-ad78-42fa-b3e9-083da9a64c4d,0286-a442ec93-ad78-42fa-b3e9-083da9a64c4d,4,0.3165672763308258,0.19916683873792346,0.11740043759290236,-2.08378580094882,refgame,21,2.2011862385417222,5
0286-a442ec93-ad78-42fa-b3e9-083da9a64c4d,0286-a442ec93-ad78-42fa-b3e9-083da9a64c4d,4,0.3165672763308258,-0.6578215451280964,0.9743888214589222,-2.08378580094882,refgame,22,3.0581746224077424,5
0286-a442ec93-ad78-42fa-b3e9-083da9a64c4d,0286-a442ec93-ad78-42fa-b3e9-083da9a64c4d,4,0.3165672763308258,0.8075062391404451,-0.49093896280961924,-2.08378580094882,refgame,23,1.5928468381392007,5
0286-a442ec93-ad78-42fa-b3e9-083da9a64c4d,0286-a442ec93-ad78-42fa-b3e9-083da9a64c4d,4,0.3165672763308258,-0.8167105132872478,1.1332777896180737,-2.08378580094882,refgame,24,3.2170635905668936,5
0286-a442ec93-ad78-42fa-b3e9-083da9a64c4d,0286-a442ec93-ad78-42fa-b3e9-083da9a64c4d,5,0.3165672763308258,0.22335492376319216,0.09321235256763366,-2.08378580094882,refgame,25,2.1769981535164535,6
0286-a442ec93-ad78-42fa-b3e9-083da9a64c4d,0286-a442ec93-ad78-42fa-b3e9-083da9a64c4d,5,0.3165672763308258,0.6837974387733246,-0.36723016244249873,-2.08378580094882,refgame,26,1.7165556385063212,6
0286-a442ec93-ad78-42fa-b3e9-083da9a64c4d,0286-a442ec93-ad78-42fa-b3e9-083da9a64c4d,5,0.3165672763308258,1.4653852549960014,-1.1488179786651755,-2.08378580094882,refgame,27,0.9349678222836444,6
0286-a442ec93-ad78-42fa-b3e9-083da9a64c4d,0286-a442ec93-ad78-42fa-b3e9-083da9a64c4d,5,0.3165672763308258,0.923121461885818,-0.6065541855549922,-2.08378580094882,refgame,28,1.4772316153938276,6
0286-a442ec93-ad78-42fa-b3e9-083da9a64c4d,0286-a442ec93-ad78-42fa-b3e9-083da9a64c4d,6,0.3165672763308258,-0.5834662028202766,0.9000334791511024,-2.08378580094882,refgame,29,2.9838192800999224,7
0286-a442ec93-ad78-42fa-b3e9-083da9a64c4d,0286-a442ec93-ad78-42fa-b3e9-083da9a64c4d,6,0.3165672763308258,-0.2464260650026995,0.5629933413335253,-2.08378580094882,refgame,30,2.6467791422823455,7
0286-a442ec93-ad78-42fa-b3e9-083da9a64c4d,0286-a442ec93-ad78-42fa-b3e9-083da9a64c4d,6,0.3165672763308258,0.8965124315036922,-0.5799451551728664,-2.08378580094882,refgame,31,1.5038406457759534,7
0286-a442ec93-ad78-42fa-b3e9-083da9a64c4d,0286-a442ec93-ad78-42fa-b3e9-083da9a64c4d,6,0.3165672763308258,-1.0749142748538325,1.3914815511846583,-2.08378580094882,refgame,32,3.4752673521334785,7
0286-a442ec93-ad78-42fa-b3e9-083da9a64c4d,0286-a442ec93-ad78-42fa-b3e9-083da9a64c4d,7,0.3165672763308258,-1.7817557605671464,2.0983230368979724,-2.08378580094882,refgame,36,4.182108837846792,8
0286-a442ec93-ad78-42fa-b3e9-083da9a64c4d,0286-a442ec93-ad78-42fa-b3e9-083da9a64c4d,7,0.3165672763308258,0.10330200778441158,0.21326526854641426,-2.08378580094882,refgame,37,2.297051069495234,8
0286-a442ec93-ad78-42fa-b3e9-083da9a64c4d,0286-a442ec93-ad78-42fa-b3e9-083da9a64c4d,7,0.3165672763308258,-1.9127352172103393,2.229302493541165,-2.08378580094882,refgame,38,4.313088294489985,8
0286-a442ec93-ad78-42fa-b3e9-083da9a64c4d,0286-a442ec93-ad78-42fa-b3e9-083da9a64c4d,7,0.3165672763308258,-0.3036419522537903,0.6202092285846161,-2.08378580094882,refgame,40,2.703995029533436,8
0286-eb63c2ce-c9c7-45b9-82af-aedbbd3ffd27,4516-5b316bf5-da1c-42cb-a9c1-0814d2b18f27,0,0.37201079743186033,2.7327759296001126,-2.360765132168252,-1.1199397759360672,yoked,0,-1.240825356232185,1
0286-eb63c2ce-c9c7-45b9-82af-aedbbd3ffd27,4516-5b316bf5-da1c-42cb-a9c1-0814d2b18f27,0,0.37201079743186033,2.3711086572213915,-1.9990978597895313,-1.1199397759360672,yoked,1,-0.8791580838534641,1
0286-eb63c2ce-c9c7-45b9-82af-aedbbd3ffd27,4516-5b316bf5-da1c-42cb-a9c1-0814d2b18f27,0,0.37201079743186033,1.5197758362142684,-1.147765038782408,-1.1199397759360672,yoked,5,-0.027825262846340904,1
0286-eb63c2ce-c9c7-45b9-82af-aedbbd3ffd27,4516-5b316bf5-da1c-42cb-a9c1-0814d2b18f27,0,0.37201079743186033,-0.6558581295640629,1.0278689269959231,-1.1199397759360672,yoked,7,2.1478087029319903,1
0286-eb63c2ce-c9c7-45b9-82af-aedbbd3ffd27,4516-5b316bf5-da1c-42cb-a9c1-0814d2b18f27,1,0.37201079743186033,1.1565151949668975,-0.7845043975350372,-1.1199397759360672,yoked,9,0.33543537840103,2
0286-eb63c2ce-c9c7-45b9-82af-aedbbd3ffd27,4516-5b316bf5-da1c-42cb-a9c1-0814d2b18f27,1,0.37201079743186033,-0.3221119157437467,0.694122713175607,-1.1199397759360672,yoked,10,1.8140624891116741,2
0286-eb63c2ce-c9c7-45b9-82af-aedbbd3ffd27,4516-5b316bf5-da1c-42cb-a9c1-0814d2b18f27,1,-2.6040755820230226,0.32281315108978903,-2.9268887331128117,-1.1199397759360672,yoked,11,-1.8069489571767445,2
0286-eb63c2ce-c9c7-45b9-82af-aedbbd3ffd27,4516-5b316bf5-da1c-42cb-a9c1-0814d2b18f27,1,-2.6040755820230226,-0.2667702151630797,-2.337305366859943,-1.1199397759360672,yoked,12,-1.2173655909238759,2
0286-eb63c2ce-c9c7-45b9-82af-aedbbd3ffd27,4516-5b316bf5-da1c-42cb-a9c1-0814d2b18f27,2,0.37201079743186033,-1.1670003961549456,1.5390111935868058,-1.1199397759360672,yoked,13,2.658950969522873,3
0286-eb63c2ce-c9c7-45b9-82af-aedbbd3ffd27,4516-5b316bf5-da1c-42cb-a9c1-0814d2b18f27,2,0.37201079743186033,0.5510789211344801,-0.17906812370261976,-1.1199397759360672,yoked,15,0.9408716522334475,3
0286-eb63c2ce-c9c7-45b9-82af-aedbbd3ffd27,4516-5b316bf5-da1c-42cb-a9c1-0814d2b18f27,2,0.37201079743186033,0.10098599654124885,0.2710248008906115,-1.1199397759360672,yoked,16,1.3909645768266787,3
0286-eb63c2ce-c9c7-45b9-82af-aedbbd3ffd27,4516-5b316bf5-da1c-42cb-a9c1-0814d2b18f27,2,0.37201079743186033,-0.5627289246694017,0.9347397221012621,-1.1199397759360672,yoked,17,2.0546794980373293,3
0286-eb63c2ce-c9c7-45b9-82af-aedbbd3ffd27,4516-5b316bf5-da1c-42cb-a9c1-0814d2b18f27,3,0.37201079743186033,-0.6006490031096765,0.9726598005415368,-1.1199397759360672,yoked,18,2.092599576477604,4
0286-eb63c2ce-c9c7-45b9-82af-aedbbd3ffd27,4516-5b316bf5-da1c-42cb-a9c1-0814d2b18f27,3,-2.6040755820230226,-0.01772928264752763,-2.586346299375495,-1.1199397759360672,yoked,19,-1.4664065234394277,4
0286-eb63c2ce-c9c7-45b9-82af-aedbbd3ffd27,4516-5b316bf5-da1c-42cb-a9c1-0814d2b18f27,3,0.37201079743186033,-1.0021316723576363,1.3741424697894966,-1.1199397759360672,yoked,20,2.494082245725564,4
0286-eb63c2ce-c9c7-45b9-82af-aedbbd3ffd27,4516-5b316bf5-da1c-42cb-a9c1-0814d2b18f27,3,0.37201079743186033,1.0601059609900456,-0.6880951635581853,-1.1199397759360672,yoked,22,0.43184461237788185,4
0286-eb63c2ce-c9c7-45b9-82af-aedbbd3ffd27,4516-5b316bf5-da1c-42cb-a9c1-0814d2b18f27,4,0.37201079743186033,-0.1484778461173068,0.5204886435491671,-1.1199397759360672,yoked,23,1.6404284194852343,5
0286-eb63c2ce-c9c7-45b9-82af-aedbbd3ffd27,4516-5b316bf5-da1c-42cb-a9c1-0814d2b18f27,4,0.37201079743186033,-0.39213698644924855,0.7641477838811088,-1.1199397759360672,yoked,24,1.884087559817176,5
0286-eb63c2ce-c9c7-45b9-82af-aedbbd3ffd27,4516-5b316bf5-da1c-42cb-a9c1-0814d2b18f27,4,0.37201079743186033,0.6717186618249216,-0.29970786439306124,-1.1199397759360672,yoked,25,0.8202319115430059,5
0286-eb63c2ce-c9c7-45b9-82af-aedbbd3ffd27,4516-5b316bf5-da1c-42cb-a9c1-0814d2b18f27,4,0.37201079743186033,-1.433052584867474,1.8050633822993343,-1.1199397759360672,yoked,26,2.9250031582354015,5
0286-eb63c2ce-c9c7-45b9-82af-aedbbd3ffd27,4516-5b316bf5-da1c-42cb-a9c1-0814d2b18f27,5,0.37201079743186033,1.1588324135448291,-0.7868216161129689,-1.1199397759360672,yoked,27,0.33311815982309834,6
0286-eb63c2ce-c9c7-45b9-82af-aedbbd3ffd27,4516-5b316bf5-da1c-42cb-a9c1-0814d2b18f27,5,0.37201079743186033,-0.5424863688943624,0.9144971663262227,-1.1199397759360672,yoked,28,2.03443694226229,6
0286-eb63c2ce-c9c7-45b9-82af-aedbbd3ffd27,4516-5b316bf5-da1c-42cb-a9c1-0814d2b18f27,5,0.37201079743186033,-0.6320858697020697,1.00409666713393,-1.1199397759360672,yoked,29,2.124036443069997,6
0286-eb63c2ce-c9c7-45b9-82af-aedbbd3ffd27,4516-5b316bf5-da1c-42cb-a9c1-0814d2b18f27,5,0.37201079743186033,-0.6479153337952696,1.01992613122713,-1.1199397759360672,yoked,30,2.1398659071631974,6
0286-eb63c2ce-c9c7-45b9-82af-aedbbd3ffd27,4516-5b316bf5-da1c-42cb-a9c1-0814d2b18f27,6,0.37201079743186033,-0.4862587305269166,0.8582695279587769,-1.1199397759360672,yoked,31,1.978209303894844,7
0286-eb63c2ce-c9c7-45b9-82af-aedbbd3ffd27,4516-5b316bf5-da1c-42cb-a9c1-0814d2b18f27,6,0.37201079743186033,-0.6429606077227398,1.0149714051546002,-1.1199397759360672,yoked,32,2.1349111810906676,7
0286-eb63c2ce-c9c7-45b9-82af-aedbbd3ffd27,4516-5b316bf5-da1c-42cb-a9c1-0814d2b18f27,6,0.37201079743186033,-1.6397341972387418,2.011744994670602,-1.1199397759360672,yoked,33,3.131684770606669,7
0286-eb63c2ce-c9c7-45b9-82af-aedbbd3ffd27,4516-5b316bf5-da1c-42cb-a9c1-0814d2b18f27,6,0.37201079743186033,-0.530016125656371,0.9020269230882314,-1.1199397759360672,yoked,34,2.021966699024299,7
0286-eb63c2ce-c9c7-45b9-82af-aedbbd3ffd27,4516-5b316bf5-da1c-42cb-a9c1-0814d2b18f27,7,0.37201079743186033,0.48732655445727835,-0.11531575702541802,-1.1199397759360672,yoked,37,1.0046240189106492,8
0286-eb63c2ce-c9c7-45b9-82af-aedbbd3ffd27,4516-5b316bf5-da1c-42cb-a9c1-0814d2b18f27,7,-2.6040755820230226,-0.21232559613329643,-2.391749985889726,-1.1199397759360672,yoked,38,-1.271810209953659,8
0286-eb63c2ce-c9c7-45b9-82af-aedbbd3ffd27,4516-5b316bf5-da1c-42cb-a9c1-0814d2b18f27,7,0.37201079743186033,-0.062414751425896184,0.4344255488577565,-1.1199397759360672,yoked,39,1.5543653247938236,8
0286-eb63c2ce-c9c7-45b9-82af-aedbbd3ffd27,4516-5b316bf5-da1c-42cb-a9c1-0814d2b18f27,7,0.37201079743186033,-0.16819273964554965,0.54020353707741,-1.1199397759360672,yoked,44,1.660143313013477,8
0327-ed057bbd-562d-4d6f-a50a-e6c94d3d8959,4152-970406c3-17ba-435b-a56b-4f1f79f00119,0,-1.1160334994329462,-0.0915087139216963,-1.0245247855112498,0.18068655855979268,yoked,2,-1.2052113440710426,1
0327-ed057bbd-562d-4d6f-a50a-e6c94d3d8959,4152-970406c3-17ba-435b-a56b-4f1f79f00119,0,0.8680260551145138,-0.9865809786399311,1.854607033754445,0.18068655855979268,yoked,3,1.6739204751946521,1
0327-ed057bbd-562d-4d6f-a50a-e6c94d3d8959,4152-970406c3-17ba-435b-a56b-4f1f79f00119,0,0.8680260551145138,1.2659719828534255,-0.3979459277389117,0.18068655855979268,yoked,7,-0.5786324862987043,1
0327-ed057bbd-562d-4d6f-a50a-e6c94d3d8959,4152-970406c3-17ba-435b-a56b-4f1f79f00119,0,0.8680260551145138,0.5774161413796262,0.29060991373488765,0.18068655855979268,yoked,8,0.10992335517509497,1
0327-ed057bbd-562d-4d6f-a50a-e6c94d3d8959,4152-970406c3-17ba-435b-a56b-4f1f79f00119,1,-1.1160334994329462,0.4924199286860355,-1.6084534281189817,0.18068655855979268,yoked,9,-1.7891399866787745,2
0327-ed057bbd-562d-4d6f-a50a-e6c94d3d8959,4152-970406c3-17ba-435b-a56b-4f1f79f00119,1,0.8680260551145138,0.5741740115601552,0.29385204355435857,0.18068655855979268,yoked,10,0.11316548499456588,2
0327-ed057bbd-562d-4d6f-a50a-e6c94d3d8959,4152-970406c3-17ba-435b-a56b-4f1f79f00119,1,-1.1160334994329462,-0.46741221027800905,-0.6486212891549371,0.18068655855979268,yoked,12,-0.8293078477147298,2
0327-ed057bbd-562d-4d6f-a50a-e6c94d3d8959,4152-970406c3-17ba-435b-a56b-4f1f79f00119,1,-1.1160334994329462,-0.5973077969149224,-0.5187257025180237,0.18068655855979268,yoked,13,-0.6994122610778164,2
0327-ed057bbd-562d-4d6f-a50a-e6c94d3d8959,4152-970406c3-17ba-435b-a56b-4f1f79f00119,2,-1.1160334994329462,1.295478362085632,-2.411511861518578,0.18068655855979268,yoked,14,-2.592198420078371,3
0327-ed057bbd-562d-4d6f-a50a-e6c94d3d8959,4152-970406c3-17ba-435b-a56b-4f1f79f00119,2,0.8680260551145138,0.128107444649725,0.7399186104647888,0.18068655855979268,yoked,15,0.5592320519049961,3
0327-ed057bbd-562d-4d6f-a50a-e6c94d3d8959,4152-970406c3-17ba-435b-a56b-4f1f79f00119,2,0.8680260551145138,-1.3203375537135915,2.188363608828105,0.18068655855979268,yoked,16,2.0076770502683123,3
0327-ed057bbd-562d-4d6f-a50a-e6c94d3d8959,4152-970406c3-17ba-435b-a56b-4f1f79f00119,2,-1.1160334994329462,-0.18141378716836748,-0.9346197122645787,0.18068655855979268,yoked,17,-1.1153062708243715,3
0327-ed057bbd-562d-4d6f-a50a-e6c94d3d8959,4152-970406c3-17ba-435b-a56b-4f1f79f00119,3,0.8680260551145138,-0.4076821797158056,1.2757082348303195,0.18068655855979268,yoked,18,1.0950216762705267,4
0327-ed057bbd-562d-4d6f-a50a-e6c94d3d8959,4152-970406c3-17ba-435b-a56b-4f1f79f00119,3,-1.1160334994329462,0.7587792980499134,-1.8748127974828597,0.18068655855979268,yoked,20,-2.0554993560426524,4
0327-ed057bbd-562d-4d6f-a50a-e6c94d3d8959,4152-970406c3-17ba-435b-a56b-4f1f79f00119,3,-1.1160334994329462,0.46928370955720483,-1.585317208990151,0.18068655855979268,yoked,21,-1.7660037675499438,4
0327-ed057bbd-562d-4d6f-a50a-e6c94d3d8959,4152-970406c3-17ba-435b-a56b-4f1f79f00119,3,-1.1160334994329462,-0.6117250236062259,-0.5043084758267202,0.18068655855979268,yoked,22,-0.6849950343865129,4
0327-ed057bbd-562d-4d6f-a50a-e6c94d3d8959,4152-970406c3-17ba-435b-a56b-4f1f79f00119,4,0.8680260551145138,-0.7349467893283939,1.6029728444429077,0.18068655855979268,yoked,23,1.422286285883115,5
0327-ed057bbd-562d-4d6f-a50a-e6c94d3d8959,4152-970406c3-17ba-435b-a56b-4f1f79f00119,4,-1.1160334994329462,0.43770985948630126,-1.5537433589192475,0.18068655855979268,yoked,24,-1.7344299174790403,5
0327-ed057bbd-562d-4d6f-a50a-e6c94d3d8959,4152-970406c3-17ba-435b-a56b-4f1f79f00119,4,0.8680260551145138,-0.8440002795808289,1.7120263346953428,0.18068655855979268,yoked,25,1.53133977613555,5
0327-ed057bbd-562d-4d6f-a50a-e6c94d3d8959,4152-970406c3-17ba-435b-a56b-4f1f79f00119,4,0.8680260551145138,1.3373263062007796,-0.46930025108626583,0.18068655855979268,yoked,26,-0.6499868096460585,5
0327-ed057bbd-562d-4d6f-a50a-e6c94d3d8959,4152-970406c3-17ba-435b-a56b-4f1f79f00119,5,0.8680260551145138,-0.8396779134882025,1.7077039686027162,0.18068655855979268,yoked,27,1.5270174100429235,6
0327-ed057bbd-562d-4d6f-a50a-e6c94d3d8959,4152-970406c3-17ba-435b-a56b-4f1f79f00119,5,-1.1160334994329462,-0.7096339829399145,-0.40639951649303163,0.18068655855979268,yoked,28,-0.5870860750528243,6
0327-ed057bbd-562d-4d6f-a50a-e6c94d3d8959,4152-970406c3-17ba-435b-a56b-4f1f79f00119,5,0.8680260551145138,2.0811371798160714,-1.2131111247015576,0.18068655855979268,yoked,29,-1.3937976832613503,6
0327-ed057bbd-562d-4d6f-a50a-e6c94d3d8959,4152-970406c3-17ba-435b-a56b-4f1f79f00119,5,-1.1160334994329462,-1.1494849209854257,0.03345142155247949,0.18068655855979268,yoked,30,-0.1472351370073132,6
0327-ed057bbd-562d-4d6f-a50a-e6c94d3d8959,4152-970406c3-17ba-435b-a56b-4f1f79f00119,6,0.8680260551145138,-0.7117384261790495,1.5797644812935632,0.18068655855979268,yoked,31,1.3990779227337704,7
0327-ed057bbd-562d-4d6f-a50a-e6c94d3d8959,4152-970406c3-17ba-435b-a56b-4f1f79f00119,6,0.8680260551145138,2.585934156959027,-1.7179081018445133,0.18068655855979268,yoked,32,-1.898594660404306,7
0327-ed057bbd-562d-4d6f-a50a-e6c94d3d8959,4152-970406c3-17ba-435b-a56b-4f1f79f00119,6,-1.1160334994329462,-0.4854732619953814,-0.6305602374375647,0.18068655855979268,yoked,33,-0.8112467959973574,7
0327-ed057bbd-562d-4d6f-a50a-e6c94d3d8959,4152-970406c3-17ba-435b-a56b-4f1f79f00119,6,-1.1160334994329462,-1.3898887381390705,0.2738552387061244,0.18068655855979268,yoked,34,0.0931686801463317,7
0327-ed057bbd-562d-4d6f-a50a-e6c94d3d8959,4152-970406c3-17ba-435b-a56b-4f1f79f00119,7,0.8680260551145138,0.5595579824325673,0.30846807268194654,0.18068655855979268,yoked,40,0.12778151412215386,8
0327-ed057bbd-562d-4d6f-a50a-e6c94d3d8959,4152-970406c3-17ba-435b-a56b-4f1f79f00119,7,0.8680260551145138,0.7681423743932734,0.09988368072124043,0.18068655855979268,yoked,41,-0.08080287783855225,8
0327-ed057bbd-562d-4d6f-a50a-e6c94d3d8959,4152-970406c3-17ba-435b-a56b-4f1f79f00119,7,0.8680260551145138,-0.6323944803561374,1.5004205354706512,0.18068655855979268,yoked,42,1.3197339769108585,8
0327-ed057bbd-562d-4d6f-a50a-e6c94d3d8959,4152-970406c3-17ba-435b-a56b-4f1f79f00119,7,0.8680260551145138,-1.1702317011588674,2.0382577562733815,0.18068655855979268,yoked,43,1.8575711977135887,8
0352-8d3e69c0-a45d-4fb8-8a1f-dbc8c9ad42ae,5598-e6b25d85-7c51-49f0-9529-c4c42d15b233,0,0.4235530374654338,0.8812027976930249,-0.4576497602275911,-0.8135576575418131,scrambled40,0,0.355907897314222,1
0352-8d3e69c0-a45d-4fb8-8a1f-dbc8c9ad42ae,5598-e6b25d85-7c51-49f0-9529-c4c42d15b233,0,0.4235530374654338,1.2067338181346579,-0.783180780669224,-0.8135576575418131,scrambled40,2,0.030376876872589054,1
0352-8d3e69c0-a45d-4fb8-8a1f-dbc8c9ad42ae,5598-e6b25d85-7c51-49f0-9529-c4c42d15b233,0,0.4235530374654338,-0.5149143348768832,0.938467372342317,-0.8135576575418131,scrambled40,6,1.75202502988413,1
0352-8d3e69c0-a45d-4fb8-8a1f-dbc8c9ad42ae,5598-e6b25d85-7c51-49f0-9529-c4c42d15b233,0,-2.287186402313343,0.6646810592994116,-2.9518674616127543,-0.8135576575418131,scrambled40,7,-2.138309804070941,1
0352-8d3e69c0-a45d-4fb8-8a1f-dbc8c9ad42ae,0786-9d8492b6-e57d-4cb6-a44e-a79bccb681f4,1,0.4235530374654338,-1.2353846370754713,1.6589376745409052,-0.8135576575418131,scrambled40,9,2.472495332082718,2
0352-8d3e69c0-a45d-4fb8-8a1f-dbc8c9ad42ae,0786-9d8492b6-e57d-4cb6-a44e-a79bccb681f4,1,-2.287186402313343,1.298861303423779,-3.586047705737122,-0.8135576575418131,scrambled40,10,-2.7724900481953085,2
0352-8d3e69c0-a45d-4fb8-8a1f-dbc8c9ad42ae,0786-9d8492b6-e57d-4cb6-a44e-a79bccb681f4,1,0.4235530374654338,0.5017973143551059,-0.07824427688967206,-0.8135576575418131,scrambled40,11,0.735313380652141,2
0352-8d3e69c0-a45d-4fb8-8a1f-dbc8c9ad42ae,0786-9d8492b6-e57d-4cb6-a44e-a79bccb681f4,1,0.4235530374654338,1.2527383435941501,-0.8291853061287163,-0.8135576575418131,scrambled40,12,-0.015627648586903242,2
0352-8d3e69c0-a45d-4fb8-8a1f-dbc8c9ad42ae,9289-9e66fe1c-fc3d-4fc3-868f-ac6a2c7def6e,2,0.4235530374654338,-0.5172614236615589,0.9408144611269927,-0.8135576575418131,scrambled40,13,1.754372118668806,3
0352-8d3e69c0-a45d-4fb8-8a1f-dbc8c9ad42ae,9289-9e66fe1c-fc3d-4fc3-868f-ac6a2c7def6e,2,-2.287186402313343,0.3596699419448943,-2.646856344258237,-0.8135576575418131,scrambled40,14,-1.833298686716424,3
0352-8d3e69c0-a45d-4fb8-8a1f-dbc8c9ad42ae,9289-9e66fe1c-fc3d-4fc3-868f-ac6a2c7def6e,2,0.4235530374654338,-1.3655538895626314,1.7891069270280653,-0.8135576575418131,scrambled40,15,2.6026645845698786,3
0352-8d3e69c0-a45d-4fb8-8a1f-dbc8c9ad42ae,9289-9e66fe1c-fc3d-4fc3-868f-ac6a2c7def6e,2,-2.287186402313343,-0.25809331956334586,-2.029093082749997,-0.8135576575418131,scrambled40,17,-1.215535425208184,3
0352-8d3e69c0-a45d-4fb8-8a1f-dbc8c9ad42ae,9790-3a0dd9df-cae0-4f97-95b4-93bf1d0bfd09,3,0.4235530374654338,0.7023891681460201,-0.2788361306805863,-0.8135576575418131,scrambled40,18,0.5347215268612268,4
0352-8d3e69c0-a45d-4fb8-8a1f-dbc8c9ad42ae,9790-3a0dd9df-cae0-4f97-95b4-93bf1d0bfd09,3,0.4235530374654338,-0.7955087470170829,1.2190617844825167,-0.8135576575418131,scrambled40,19,2.0326194420243295,4
0352-8d3e69c0-a45d-4fb8-8a1f-dbc8c9ad42ae,9790-3a0dd9df-cae0-4f97-95b4-93bf1d0bfd09,3,0.4235530374654338,-0.15906093400573587,0.5826139714711697,-0.8135576575418131,scrambled40,20,1.3961716290129829,4
0352-8d3e69c0-a45d-4fb8-8a1f-dbc8c9ad42ae,9790-3a0dd9df-cae0-4f97-95b4-93bf1d0bfd09,3,0.4235530374654338,-0.4108648586957989,0.8344178961612327,-0.8135576575418131,scrambled40,22,1.6479755537030458,4
0352-8d3e69c0-a45d-4fb8-8a1f-dbc8c9ad42ae,0051-e13f6f0c-ae9b-4976-8fcd-870cdb75f63f,4,0.4235530374654338,0.3357286975477015,0.08782433991773231,-0.8135576575418131,scrambled40,23,0.9013819974595454,5
0352-8d3e69c0-a45d-4fb8-8a1f-dbc8c9ad42ae,0051-e13f6f0c-ae9b-4976-8fcd-870cdb75f63f,4,0.4235530374654338,0.1411033466094126,0.28244969085602123,-0.8135576575418131,scrambled40,24,1.0960073483978343,5
0352-8d3e69c0-a45d-4fb8-8a1f-dbc8c9ad42ae,0051-e13f6f0c-ae9b-4976-8fcd-870cdb75f63f,4,0.4235530374654338,-0.5384551152320588,0.9620081526974926,-0.8135576575418131,scrambled40,25,1.7755658102393057,5
0352-8d3e69c0-a45d-4fb8-8a1f-dbc8c9ad42ae,0051-e13f6f0c-ae9b-4976-8fcd-870cdb75f63f,4,0.4235530374654338,-0.3926812475257457,0.8162342849911794,-0.8135576575418131,scrambled40,26,1.6297919425329925,5
0352-8d3e69c0-a45d-4fb8-8a1f-dbc8c9ad42ae,8705-4970135a-e63c-4cd1-953f-d5850978a781,5,0.4235530374654338,0.15959565073666798,0.26395738672876584,-0.8135576575418131,scrambled40,27,1.077515044270579,6
0352-8d3e69c0-a45d-4fb8-8a1f-dbc8c9ad42ae,8705-4970135a-e63c-4cd1-953f-d5850978a781,5,0.4235530374654338,2.845851489219948,-2.422298451754514,-0.8135576575418131,scrambled40,29,-1.6087407942127008,6
0352-8d3e69c0-a45d-4fb8-8a1f-dbc8c9ad42ae,8705-4970135a-e63c-4cd1-953f-d5850978a781,5,-2.287186402313343,0.03412523622040984,-2.3213116385337527,-0.8135576575418131,scrambled40,30,-1.5077539809919396,6
0352-8d3e69c0-a45d-4fb8-8a1f-dbc8c9ad42ae,8705-4970135a-e63c-4cd1-953f-d5850978a781,5,0.4235530374654338,1.0740664477561777,-0.6505134102907438,-0.8135576575418131,scrambled40,31,0.16304424725106925,6
0352-8d3e69c0-a45d-4fb8-8a1f-dbc8c9ad42ae,0836-215b3490-cdf2-4a13-b55a-ea90f7b1903b,6,0.4235530374654338,-0.859546917637117,1.2830999551025508,-0.8135576575418131,scrambled40,32,2.096657612644364,7
0352-8d3e69c0-a45d-4fb8-8a1f-dbc8c9ad42ae,0836-215b3490-cdf2-4a13-b55a-ea90f7b1903b,6,0.4235530374654338,-1.1209140526428962,1.5444670901083302,-0.8135576575418131,scrambled40,33,2.358024747650143,7
0352-8d3e69c0-a45d-4fb8-8a1f-dbc8c9ad42ae,0836-215b3490-cdf2-4a13-b55a-ea90f7b1903b,6,0.4235530374654338,-1.8159194777182854,2.2394725151837194,-0.8135576575418131,scrambled40,34,3.0530301727255322,7
0352-8d3e69c0-a45d-4fb8-8a1f-dbc8c9ad42ae,0836-215b3490-cdf2-4a13-b55a-ea90f7b1903b,6,0.4235530374654338,-0.5008641900225076,0.9244172274879414,-0.8135576575418131,scrambled40,35,1.7379748850297545,7
0352-8d3e69c0-a45d-4fb8-8a1f-dbc8c9ad42ae,3522-5f73221e-1d4d-4e32-80ca-939e04b87bc3,7,0.4235530374654338,1.231247688479146,-0.8076946510137121,-0.8135576575418131,scrambled40,36,0.005863006528101011,8
0352-8d3e69c0-a45d-4fb8-8a1f-dbc8c9ad42ae,3522-5f73221e-1d4d-4e32-80ca-939e04b87bc3,7,0.4235530374654338,-0.37346234016285307,0.7970153776282869,-0.8135576575418131,scrambled40,38,1.6105730351701,8
0352-8d3e69c0-a45d-4fb8-8a1f-dbc8c9ad42ae,3522-5f73221e-1d4d-4e32-80ca-939e04b87bc3,7,0.4235530374654338,-1.483682554431684,1.907235591897118,-0.8135576575418131,scrambled40,41,2.7207932494389313,8
0352-8d3e69c0-a45d-4fb8-8a1f-dbc8c9ad42ae,3522-5f73221e-1d4d-4e32-80ca-939e04b87bc3,7,0.4235530374654338,-0.3476242633287945,0.7711773007942283,-0.8135576575418131,scrambled40,43,1.5847349583360413,8
0364-71668b19-8842-497f-b182-f0a7263c2f99,5598-e6b25d85-7c51-49f0-9529-c4c42d15b233,0,0.5682562790440133,0.9485661190313702,-0.3803098399873569,-0.710787081686376,scrambled40,0,0.33047724169901915,1
0364-71668b19-8842-497f-b182-f0a7263c2f99,5598-e6b25d85-7c51-49f0-9529-c4c42d15b233,0,0.5682562790440133,1.8843994459039932,-1.31614316685998,-0.710787081686376,scrambled40,2,-0.6053560851736038,1
0364-71668b19-8842-497f-b182-f0a7263c2f99,5598-e6b25d85-7c51-49f0-9529-c4c42d15b233,0,0.5682562790440133,-0.661166836298849,1.2294231153428623,-0.710787081686376,scrambled40,5,1.9402101970292382,1
0364-71668b19-8842-497f-b182-f0a7263c2f99,5598-e6b25d85-7c51-49f0-9529-c4c42d15b233,0,-1.7047688371320402,0.6713495981089898,-2.37611843524103,-0.710787081686376,scrambled40,7,-1.6653313535546537,1
0364-71668b19-8842-497f-b182-f0a7263c2f99,0786-9d8492b6-e57d-4cb6-a44e-a79bccb681f4,1,-1.7047688371320402,2.4366582162447727,-4.1414270533768125,-0.710787081686376,scrambled40,9,-3.4306399716904363,2
0364-71668b19-8842-497f-b182-f0a7263c2f99,0786-9d8492b6-e57d-4cb6-a44e-a79bccb681f4,1,0.5682562790440133,0.8382073780490057,-0.26995109900499237,-0.710787081686376,scrambled40,10,0.4408359826813837,2
0364-71668b19-8842-497f-b182-f0a7263c2f99,0786-9d8492b6-e57d-4cb6-a44e-a79bccb681f4,1,-1.7047688371320402,0.881884328677156,-2.5866531658091962,-0.710787081686376,scrambled40,11,-1.87586608412282,2
0364-71668b19-8842-497f-b182-f0a7263c2f99,0786-9d8492b6-e57d-4cb6-a44e-a79bccb681f4,1,0.5682562790440133,-0.11243236512332011,0.6806886441673334,-0.710787081686376,scrambled40,12,1.3914757258537094,2
0364-71668b19-8842-497f-b182-f0a7263c2f99,9289-9e66fe1c-fc3d-4fc3-868f-ac6a2c7def6e,2,0.5682562790440133,-0.7210085522036732,1.2892648312476864,-0.710787081686376,scrambled40,13,2.0000519129340626,3
0364-71668b19-8842-497f-b182-f0a7263c2f99,9289-9e66fe1c-fc3d-4fc3-868f-ac6a2c7def6e,2,-1.7047688371320402,0.5187857310798196,-2.22355456821186,-0.710787081686376,scrambled40,14,-1.5127674865254837,3
0364-71668b19-8842-497f-b182-f0a7263c2f99,9289-9e66fe1c-fc3d-4fc3-868f-ac6a2c7def6e,2,0.5682562790440133,-1.0199359703047424,1.5881922493487557,-0.710787081686376,scrambled40,15,2.298979331035132,3
0364-71668b19-8842-497f-b182-f0a7263c2f99,9289-9e66fe1c-fc3d-4fc3-868f-ac6a2c7def6e,2,0.5682562790440133,0.08088336262578547,0.4873729164182279,-0.710787081686376,scrambled40,17,1.1981599981046038,3
0364-71668b19-8842-497f-b182-f0a7263c2f99,9790-3a0dd9df-cae0-4f97-95b4-93bf1d0bfd09,3,-1.7047688371320402,-0.2880114473041288,-1.4167573898279113,-0.710787081686376,scrambled40,18,-0.7059703081415353,4
0364-71668b19-8842-497f-b182-f0a7263c2f99,9790-3a0dd9df-cae0-4f97-95b4-93bf1d0bfd09,3,0.5682562790440133,1.5674128243451495,-0.9991565453011362,-0.710787081686376,scrambled40,19,-0.2883694636147601,4
0364-71668b19-8842-497f-b182-f0a7263c2f99,9790-3a0dd9df-cae0-4f97-95b4-93bf1d0bfd09,3,0.5682562790440133,-0.8034221753738559,1.3716784544178693,-0.710787081686376,scrambled40,20,2.0824655361042455,4
0364-71668b19-8842-497f-b182-f0a7263c2f99,9790-3a0dd9df-cae0-4f97-95b4-93bf1d0bfd09,3,0.5682562790440133,-0.6279297966965809,1.1961860757405942,-0.710787081686376,scrambled40,21,1.9069731574269704,4
0364-71668b19-8842-497f-b182-f0a7263c2f99,0051-e13f6f0c-ae9b-4976-8fcd-870cdb75f63f,4,0.5682562790440133,0.41146042512529546,0.15679585391871786,-0.710787081686376,scrambled40,22,0.8675829356050939,5
0364-71668b19-8842-497f-b182-f0a7263c2f99,0051-e13f6f0c-ae9b-4976-8fcd-870cdb75f63f,4,0.5682562790440133,1.0109285276262499,-0.4426722485822365,-0.710787081686376,scrambled40,23,0.2681148331041395,5
0364-71668b19-8842-497f-b182-f0a7263c2f99,0051-e13f6f0c-ae9b-4976-8fcd-870cdb75f63f,4,0.5682562790440133,0.8963687300925519,-0.3281124510485386,-0.710787081686376,scrambled40,25,0.38267463063783747,5
0364-71668b19-8842-497f-b182-f0a7263c2f99,0051-e13f6f0c-ae9b-4976-8fcd-870cdb75f63f,4,0.5682562790440133,-0.661166836298849,1.2294231153428623,-0.710787081686376,scrambled40,26,1.9402101970292382,5
0364-71668b19-8842-497f-b182-f0a7263c2f99,8705-4970135a-e63c-4cd1-953f-d5850978a781,5,0.5682562790440133,-0.2679846951814843,0.8362409742254977,-0.710787081686376,scrambled40,27,1.5470280559118739,6
0364-71668b19-8842-497f-b182-f0a7263c2f99,8705-4970135a-e63c-4cd1-953f-d5850978a781,5,-1.7047688371320402,-0.19515365189223843,-1.5096151852398019,-0.710787081686376,scrambled40,29,-0.7988281035534258,6
0364-71668b19-8842-497f-b182-f0a7263c2f99,8705-4970135a-e63c-4cd1-953f-d5850978a781,5,0.5682562790440133,0.3480670929910395,0.22018918605297383,-0.710787081686376,scrambled40,30,0.9309762677393498,6
0364-71668b19-8842-497f-b182-f0a7263c2f99,8705-4970135a-e63c-4cd1-953f-d5850978a781,5,-1.7047688371320402,0.7683553978562883,-2.4731242349883287,-0.710787081686376,scrambled40,31,-1.7623371533019525,6
0364-71668b19-8842-497f-b182-f0a7263c2f99,0836-215b3490-cdf2-4a13-b55a-ea90f7b1903b,6,0.5682562790440133,-0.09948092522901247,0.6677372042730259,-0.710787081686376,scrambled40,32,1.378524285959402,7
0364-71668b19-8842-497f-b182-f0a7263c2f99,0836-215b3490-cdf2-4a13-b55a-ea90f7b1903b,6,0.5682562790440133,-0.4922757607006965,1.0605320397447098,-0.710787081686376,scrambled40,33,1.7713191214310857,7
0364-71668b19-8842-497f-b182-f0a7263c2f99,0836-215b3490-cdf2-4a13-b55a-ea90f7b1903b,6,0.5682562790440133,-1.6216111373642759,2.189867416408289,-0.710787081686376,scrambled40,34,2.9006544980946654,7
0364-71668b19-8842-497f-b182-f0a7263c2f99,0836-215b3490-cdf2-4a13-b55a-ea90f7b1903b,6,0.5682562790440133,-1.2292462495156744,1.7975025285596877,-0.710787081686376,scrambled40,35,2.508289610246064,7
0364-71668b19-8842-497f-b182-f0a7263c2f99,3522-5f73221e-1d4d-4e32-80ca-939e04b87bc3,7,0.5682562790440133,-0.7523781050872937,1.320634384131307,-0.710787081686376,scrambled40,36,2.031421465817683,8
0364-71668b19-8842-497f-b182-f0a7263c2f99,3522-5f73221e-1d4d-4e32-80ca-939e04b87bc3,7,0.5682562790440133,-1.226614407215727,1.7948706862597403,-0.710787081686376,scrambled40,38,2.5056577679461163,8
0364-71668b19-8842-497f-b182-f0a7263c2f99,3522-5f73221e-1d4d-4e32-80ca-939e04b87bc3,7,0.5682562790440133,-1.327494900181672,1.8957511792256854,-0.710787081686376,scrambled40,40,2.6065382609120613,8
0364-71668b19-8842-497f-b182-f0a7263c2f99,3522-5f73221e-1d4d-4e32-80ca-939e04b87bc3,7,-1.7047688371320402,-1.1560133657853877,-0.5487554713466525,-0.710787081686376,scrambled40,42,0.16203161033972358,8
0371-20654dea-0606-4429-ad67-5d15d5d6bb93,0286-a442ec93-ad78-42fa-b3e9-083da9a64c4d,0,0.4235530374654338,-0.2805360736396918,0.7040891111051256,-0.9323981832593995,yoked,2,1.636487294364525,1
0371-20654dea-0606-4429-ad67-5d15d5d6bb93,0286-a442ec93-ad78-42fa-b3e9-083da9a64c4d,0,-2.287186402313343,1.3669424648043174,-3.6541288671176604,-0.9323981832593995,yoked,3,-2.7217306838582607,1
0371-20654dea-0606-4429-ad67-5d15d5d6bb93,0286-a442ec93-ad78-42fa-b3e9-083da9a64c4d,0,-2.287186402313343,-0.38319850957035695,-1.9039878927429859,-0.9323981832593995,yoked,6,-0.9715897094835864,1
0371-20654dea-0606-4429-ad67-5d15d5d6bb93,0286-a442ec93-ad78-42fa-b3e9-083da9a64c4d,0,0.4235530374654338,-0.700881878252493,1.1244349157179268,-0.9323981832593995,yoked,8,2.056833098977326,1
0371-20654dea-0606-4429-ad67-5d15d5d6bb93,0286-a442ec93-ad78-42fa-b3e9-083da9a64c4d,1,0.4235530374654338,-0.9225159580943166,1.3460689955597505,-0.9323981832593995,yoked,9,2.2784671788191497,2
0371-20654dea-0606-4429-ad67-5d15d5d6bb93,0286-a442ec93-ad78-42fa-b3e9-083da9a64c4d,1,0.4235530374654338,-0.8117526841435282,1.235305721608962,-0.9323981832593995,yoked,10,2.1677039048683615,2
0371-20654dea-0606-4429-ad67-5d15d5d6bb93,0286-a442ec93-ad78-42fa-b3e9-083da9a64c4d,1,0.4235530374654338,-0.07872627290587866,0.5022793103713125,-0.9323981832593995,yoked,11,1.434677493630712,2
0371-20654dea-0606-4429-ad67-5d15d5d6bb93,0286-a442ec93-ad78-42fa-b3e9-083da9a64c4d,1,-2.287186402313343,-0.8492102519025518,-1.4379761504107909,-0.9323981832593995,yoked,13,-0.5055779671513914,2
0371-20654dea-0606-4429-ad67-5d15d5d6bb93,0286-a442ec93-ad78-42fa-b3e9-083da9a64c4d,2,0.4235530374654338,-0.38104011065332755,0.8045931481187614,-0.9323981832593995,yoked,14,1.7369913313781609,3
0371-20654dea-0606-4429-ad67-5d15d5d6bb93,0286-a442ec93-ad78-42fa-b3e9-083da9a64c4d,2,0.4235530374654338,0.6098739807388863,-0.1863209432734525,-0.9323981832593995,yoked,15,0.746077239985947,3
0371-20654dea-0606-4429-ad67-5d15d5d6bb93,0286-a442ec93-ad78-42fa-b3e9-083da9a64c4d,2,0.4235530374654338,2.9508185451520688,-2.527265507686635,-0.9323981832593995,yoked,16,-1.5948673244272353,3
0371-20654dea-0606-4429-ad67-5d15d5d6bb93,0286-a442ec93-ad78-42fa-b3e9-083da9a64c4d,2,0.4235530374654338,1.039881287972721,-0.6163282505072872,-0.9323981832593995,yoked,17,0.31606993275211226,3
0371-20654dea-0606-4429-ad67-5d15d5d6bb93,0286-a442ec93-ad78-42fa-b3e9-083da9a64c4d,3,0.4235530374654338,1.8828458356131992,-1.4592927981477652,-0.9323981832593995,yoked,18,-0.5268946148883658,4
0371-20654dea-0606-4429-ad67-5d15d5d6bb93,0286-a442ec93-ad78-42fa-b3e9-083da9a64c4d,3,0.4235530374654338,-0.6079124231267414,1.0314654605921754,-0.9323981832593995,yoked,19,1.9638636438515749,4
0371-20654dea-0606-4429-ad67-5d15d5d6bb93,0286-a442ec93-ad78-42fa-b3e9-083da9a64c4d,3,0.4235530374654338,0.6850954520009106,-0.2615424145354768,-0.9323981832593995,yoked,20,0.6708557687239227,4
0371-20654dea-0606-4429-ad67-5d15d5d6bb93,0286-a442ec93-ad78-42fa-b3e9-083da9a64c4d,3,0.4235530374654338,-1.3582393709094462,1.78179240837488,-0.9323981832593995,yoked,22,2.7141905916342797,4
0371-20654dea-0606-4429-ad67-5d15d5d6bb93,0286-a442ec93-ad78-42fa-b3e9-083da9a64c4d,4,0.4235530374654338,-0.5542093543568312,0.977762391822265,-0.9323981832593995,yoked,23,1.9101605750816644,5
0371-20654dea-0606-4429-ad67-5d15d5d6bb93,0286-a442ec93-ad78-42fa-b3e9-083da9a64c4d,4,0.4235530374654338,1.0515453802903836,-0.6279923428249498,-0.9323981832593995,yoked,24,0.30440584043444974,5
0371-20654dea-0606-4429-ad67-5d15d5d6bb93,0286-a442ec93-ad78-42fa-b3e9-083da9a64c4d,4,0.4235530374654338,-0.3124133821743789,0.7359664196398128,-0.9323981832593995,yoked,25,1.6683646028992123,5
0371-20654dea-0606-4429-ad67-5d15d5d6bb93,0286-a442ec93-ad78-42fa-b3e9-083da9a64c4d,4,0.4235530374654338,0.23882681366024602,0.1847262238051878,-0.9323981832593995,yoked,26,1.1171244070645874,5
0371-20654dea-0606-4429-ad67-5d15d5d6bb93,0286-a442ec93-ad78-42fa-b3e9-083da9a64c4d,5,0.4235530374654338,0.14546489504329602,0.2780881424221378,-0.9323981832593995,yoked,27,1.2104863256815372,6
0371-20654dea-0606-4429-ad67-5d15d5d6bb93,0286-a442ec93-ad78-42fa-b3e9-083da9a64c4d,5,0.4235530374654338,1.013127554296895,-0.5895745168314611,-0.9323981832593995,yoked,28,0.3428236664279384,6
0371-20654dea-0606-4429-ad67-5d15d5d6bb93,0286-a442ec93-ad78-42fa-b3e9-083da9a64c4d,5,0.4235530374654338,0.8532744663640264,-0.42972142889859255,-0.9323981832593995,yoked,30,0.5026767543608069,6
0371-20654dea-0606-4429-ad67-5d15d5d6bb93,0286-a442ec93-ad78-42fa-b3e9-083da9a64c4d,5,0.4235530374654338,-0.32949021363315867,0.7530432510985925,-0.9323981832593995,yoked,31,1.685441434357992,6
0371-20654dea-0606-4429-ad67-5d15d5d6bb93,0286-a442ec93-ad78-42fa-b3e9-083da9a64c4d,6,0.4235530374654338,-0.9799452372266086,1.4034982746920424,-0.9323981832593995,yoked,32,2.335896457951442,7
0371-20654dea-0606-4429-ad67-5d15d5d6bb93,0286-a442ec93-ad78-42fa-b3e9-083da9a64c4d,6,0.4235530374654338,0.018473100750733155,0.40507993671470066,-0.9323981832593995,yoked,33,1.3374781199741002,7
0371-20654dea-0606-4429-ad67-5d15d5d6bb93,0286-a442ec93-ad78-42fa-b3e9-083da9a64c4d,6,-2.287186402313343,0.9082140292252611,-3.1954004315386038,-0.9323981832593995,yoked,34,-2.2630022482792045,7
0371-20654dea-0606-4429-ad67-5d15d5d6bb93,0286-a442ec93-ad78-42fa-b3e9-083da9a64c4d,6,-2.287186402313343,-0.7215011760048107,-1.5656852263085321,-0.9323981832593995,yoked,35,-0.6332870430491326,7
0371-20654dea-0606-4429-ad67-5d15d5d6bb93,0286-a442ec93-ad78-42fa-b3e9-083da9a64c4d,7,0.4235530374654338,-1.3633939222053746,1.7869469596708085,-0.9323981832593995,yoked,39,2.719345142930208,8
0371-20654dea-0606-4429-ad67-5d15d5d6bb93,0286-a442ec93-ad78-42fa-b3e9-083da9a64c4d,7,0.4235530374654338,-1.057459372455826,1.4810124099212598,-0.9323981832593995,yoked,40,2.413410593180659,8
0371-20654dea-0606-4429-ad67-5d15d5d6bb93,0286-a442ec93-ad78-42fa-b3e9-083da9a64c4d,7,0.4235530374654338,-0.9439819548437336,1.3675349923091673,-0.9323981832593995,yoked,42,2.299933175568567,8
0371-20654dea-0606-4429-ad67-5d15d5d6bb93,0286-a442ec93-ad78-42fa-b3e9-083da9a64c4d,7,0.4235530374654338,-0.12797565981392922,0.551528697279363,-0.9323981832593995,yoked,44,1.4839268805387626,8
0429-ac4912e4-e71c-4c46-a8bf-6200145d6c71,0786-9d8492b6-e57d-4cb6-a44e-a79bccb681f4,0,0.47281768666240076,1.6731856989210097,-1.200368012258609,-0.15657649560602704,scrambled40,1,-1.0437915166525817,1
0429-ac4912e4-e71c-4c46-a8bf-6200145d6c71,0786-9d8492b6-e57d-4cb6-a44e-a79bccb681f4,0,0.47281768666240076,0.9788233114068047,-0.5060056247444039,-0.15657649560602704,scrambled40,4,-0.34942912913837687,1
0429-ac4912e4-e71c-4c46-a8bf-6200145d6c71,0786-9d8492b6-e57d-4cb6-a44e-a79bccb681f4,0,0.47281768666240076,-0.06047647732784069,0.5332941639902414,-0.15657649560602704,scrambled40,7,0.6898706595962685,1
0429-ac4912e4-e71c-4c46-a8bf-6200145d6c71,0786-9d8492b6-e57d-4cb6-a44e-a79bccb681f4,0,0.47281768666240076,-0.07395580392625725,0.546773490588658,-0.15657649560602704,scrambled40,8,0.703349986194685,1
0429-ac4912e4-e71c-4c46-a8bf-6200145d6c71,9289-9e66fe1c-fc3d-4fc3-868f-ac6a2c7def6e,1,0.47281768666240076,-0.7509162769166977,1.2237339635790985,-0.15657649560602704,scrambled40,9,1.3803104591851256,2
0429-ac4912e4-e71c-4c46-a8bf-6200145d6c71,9289-9e66fe1c-fc3d-4fc3-868f-ac6a2c7def6e,1,0.47281768666240076,-0.9435298432149822,1.4163475298773829,-0.15657649560602704,scrambled40,10,1.57292402548341,2
0429-ac4912e4-e71c-4c46-a8bf-6200145d6c71,9289-9e66fe1c-fc3d-4fc3-868f-ac6a2c7def6e,1,0.47281768666240076,-0.49858820829111605,0.9714058949535168,-0.15657649560602704,scrambled40,11,1.1279823905595439,2
0429-ac4912e4-e71c-4c46-a8bf-6200145d6c71,9289-9e66fe1c-fc3d-4fc3-868f-ac6a2c7def6e,1,-2.0488766422037368,-1.1517431584915223,-0.8971334837122145,-0.15657649560602704,scrambled40,12,-0.7405569881061874,2
0429-ac4912e4-e71c-4c46-a8bf-6200145d6c71,9790-3a0dd9df-cae0-4f97-95b4-93bf1d0bfd09,2,0.47281768666240076,0.2057384409605008,0.26707924570189995,-0.15657649560602704,scrambled40,14,0.423655741307927,3
0429-ac4912e4-e71c-4c46-a8bf-6200145d6c71,9790-3a0dd9df-cae0-4f97-95b4-93bf1d0bfd09,2,0.47281768666240076,1.724467691457143,-1.2516500047947423,-0.15657649560602704,scrambled40,15,-1.0950735091887154,3
0429-ac4912e4-e71c-4c46-a8bf-6200145d6c71,9790-3a0dd9df-cae0-4f97-95b4-93bf1d0bfd09,2,0.47281768666240076,0.6598307803210275,-0.18701309365862673,-0.15657649560602704,scrambled40,16,-0.030436598052599684,3
0429-ac4912e4-e71c-4c46-a8bf-6200145d6c71,9790-3a0dd9df-cae0-4f97-95b4-93bf1d0bfd09,2,0.47281768666240076,-0.5059287048827661,0.9787463915451668,-0.15657649560602704,scrambled40,17,1.1353228871511938,3
0429-ac4912e4-e71c-4c46-a8bf-6200145d6c71,0051-e13f6f0c-ae9b-4976-8fcd-870cdb75f63f,3,-2.0488766422037368,1.2358714391232828,-3.2847480813270193,-0.15657649560602704,scrambled40,18,-3.128171585720992,4
0429-ac4912e4-e71c-4c46-a8bf-6200145d6c71,0051-e13f6f0c-ae9b-4976-8fcd-870cdb75f63f,3,0.47281768666240076,0.7358818416071055,-0.2630641549447047,-0.15657649560602704,scrambled40,19,-0.10648765933867765,4
0429-ac4912e4-e71c-4c46-a8bf-6200145d6c71,0051-e13f6f0c-ae9b-4976-8fcd-870cdb75f63f,3,0.47281768666240076,-0.28553090427410255,0.7583485909365033,-0.15657649560602704,scrambled40,20,0.9149250865425304,4
0429-ac4912e4-e71c-4c46-a8bf-6200145d6c71,0051-e13f6f0c-ae9b-4976-8fcd-870cdb75f63f,3,0.47281768666240076,0.03527485258147046,0.4375428340809303,-0.15657649560602704,scrambled40,21,0.5941193296869574,4
0429-ac4912e4-e71c-4c46-a8bf-6200145d6c71,8705-4970135a-e63c-4cd1-953f-d5850978a781,4,0.47281768666240076,0.9007876278669988,-0.4279699412045981,-0.15657649560602704,scrambled40,22,-0.27139344559857104,5
0429-ac4912e4-e71c-4c46-a8bf-6200145d6c71,8705-4970135a-e63c-4cd1-953f-d5850978a781,4,-2.0488766422037368,-0.266819710590364,-1.7820569316133728,-0.15657649560602704,scrambled40,23,-1.6254804360073458,5
0429-ac4912e4-e71c-4c46-a8bf-6200145d6c71,8705-4970135a-e63c-4cd1-953f-d5850978a781,4,0.47281768666240076,2.038848625637904,-1.5660309389755032,-0.15657649560602704,scrambled40,24,-1.409454443369476,5
0429-ac4912e4-e71c-4c46-a8bf-6200145d6c71,8705-4970135a-e63c-4cd1-953f-d5850978a781,4,0.47281768666240076,-0.7579064788258881,1.2307241654882888,-0.15657649560602704,scrambled40,25,1.387300661094316,5
0429-ac4912e4-e71c-4c46-a8bf-6200145d6c71,0836-215b3490-cdf2-4a13-b55a-ea90f7b1903b,5,0.47281768666240076,-0.5345451910227252,1.007362877685126,-0.15657649560602704,scrambled40,27,1.1639393732911532,6
0429-ac4912e4-e71c-4c46-a8bf-6200145d6c71,0836-215b3490-cdf2-4a13-b55a-ea90f7b1903b,5,0.47281768666240076,-1.324386689213469,1.7972043758758698,-0.15657649560602704,scrambled40,28,1.953780871481897,6
0429-ac4912e4-e71c-4c46-a8bf-6200145d6c71,0836-215b3490-cdf2-4a13-b55a-ea90f7b1903b,5,0.47281768666240076,0.47135736218433155,0.0014603244780692082,-0.15657649560602704,scrambled40,30,0.15803682008409625,6
0429-ac4912e4-e71c-4c46-a8bf-6200145d6c71,0836-215b3490-cdf2-4a13-b55a-ea90f7b1903b,5,0.47281768666240076,-0.29065441808534953,0.7634721047477503,-0.15657649560602704,scrambled40,31,0.9200486003537773,6
0429-ac4912e4-e71c-4c46-a8bf-6200145d6c71,3522-5f73221e-1d4d-4e32-80ca-939e04b87bc3,6,-2.0488766422037368,-0.05889467609769171,-1.9899819661060452,-0.15657649560602704,scrambled40,32,-1.833405470500018,7
0429-ac4912e4-e71c-4c46-a8bf-6200145d6c71,3522-5f73221e-1d4d-4e32-80ca-939e04b87bc3,6,0.47281768666240076,-0.8144264877453001,1.287244174407701,-0.15657649560602704,scrambled40,33,1.4438206700137282,7
0429-ac4912e4-e71c-4c46-a8bf-6200145d6c71,3522-5f73221e-1d4d-4e32-80ca-939e04b87bc3,6,-2.0488766422037368,1.173266369567133,-3.2221430117708696,-0.15657649560602704,scrambled40,34,-3.0655665161648424,7
0429-ac4912e4-e71c-4c46-a8bf-6200145d6c71,3522-5f73221e-1d4d-4e32-80ca-939e04b87bc3,6,0.47281768666240076,-0.8297496273704343,1.302567314032835,-0.15657649560602704,scrambled40,35,1.4591438096388623,7
0429-ac4912e4-e71c-4c46-a8bf-6200145d6c71,4529-638b7428-2c20-4fb2-a388-1c7513f675d1,7,0.47281768666240076,-1.0266088586990523,1.499426545361453,-0.15657649560602704,scrambled40,36,1.6560030409674802,8
0429-ac4912e4-e71c-4c46-a8bf-6200145d6c71,4529-638b7428-2c20-4fb2-a388-1c7513f675d1,7,0.47281768666240076,-1.720838223343165,2.1936559100055657,-0.15657649560602704,scrambled40,40,2.350232405611593,8
0429-ac4912e4-e71c-4c46-a8bf-6200145d6c71,4529-638b7428-2c20-4fb2-a388-1c7513f675d1,7,0.47281768666240076,1.3793063607277438,-0.9064886740653431,-0.15657649560602704,scrambled40,41,-0.749912178459316,8
0429-ac4912e4-e71c-4c46-a8bf-6200145d6c71,4529-638b7428-2c20-4fb2-a388-1c7513f675d1,7,-2.0488766422037368,-1.3171406640438108,-0.731735978159926,-0.15657649560602704,scrambled40,43,-0.5751594825538989,8
0474-42daaa74-f4db-4440-bce7-a725bdabe5d2,4344-f66f25b9-b27d-401c-bfee-521325f1ed15,0,-3.0601503378646493,1.7660153261782463,-4.826165664042896,-0.9647700311993386,yoked,0,-3.861395632843557,1
0474-42daaa74-f4db-4440-bce7-a725bdabe5d2,4344-f66f25b9-b27d-401c-bfee-521325f1ed15,0,0.3165672763308258,0.27873500966866205,0.03783226666216377,-0.9647700311993386,yoked,1,1.0026022978615023,1
0474-42daaa74-f4db-4440-bce7-a725bdabe5d2,4344-f66f25b9-b27d-401c-bfee-521325f1ed15,0,0.3165672763308258,0.12162001599327914,0.19494726033754667,-0.9647700311993386,yoked,6,1.1597172915368852,1
0474-42daaa74-f4db-4440-bce7-a725bdabe5d2,4344-f66f25b9-b27d-401c-bfee-521325f1ed15,0,0.3165672763308258,-0.4177387359150025,0.7343060122458283,-0.9647700311993386,yoked,8,1.6990760434451668,1
0474-42daaa74-f4db-4440-bce7-a725bdabe5d2,4344-f66f25b9-b27d-401c-bfee-521325f1ed15,1,0.3165672763308258,-0.35699328256086943,0.6735605588916953,-0.9647700311993386,yoked,9,1.6383305900910339,2
0474-42daaa74-f4db-4440-bce7-a725bdabe5d2,4344-f66f25b9-b27d-401c-bfee-521325f1ed15,1,0.3165672763308258,-0.038490144658135814,0.35505742098896165,-0.9647700311993386,yoked,10,1.3198274521883002,2
0474-42daaa74-f4db-4440-bce7-a725bdabe5d2,4344-f66f25b9-b27d-401c-bfee-521325f1ed15,1,0.3165672763308258,-0.15640410209870725,0.4729713784295331,-0.9647700311993386,yoked,12,1.4377414096288716,2
0474-42daaa74-f4db-4440-bce7-a725bdabe5d2,4344-f66f25b9-b27d-401c-bfee-521325f1ed15,1,0.3165672763308258,-0.27858141914710793,0.5951486954779337,-0.9647700311993386,yoked,13,1.5599187266772723,2
0474-42daaa74-f4db-4440-bce7-a725bdabe5d2,4344-f66f25b9-b27d-401c-bfee-521325f1ed15,2,0.3165672763308258,-0.41337916527060536,0.7299464416014312,-0.9647700311993386,yoked,14,1.6947164728007698,3
0474-42daaa74-f4db-4440-bce7-a725bdabe5d2,4344-f66f25b9-b27d-401c-bfee-521325f1ed15,2,0.3165672763308258,-0.4890265930299845,0.8055938693608103,-0.9647700311993386,yoked,15,1.7703639005601488,3
0474-42daaa74-f4db-4440-bce7-a725bdabe5d2,4344-f66f25b9-b27d-401c-bfee-521325f1ed15,2,0.3165672763308258,-0.02216158788629269,0.3387288642171185,-0.9647700311993386,yoked,16,1.303498895416457,3
0474-42daaa74-f4db-4440-bce7-a725bdabe5d2,4344-f66f25b9-b27d-401c-bfee-521325f1ed15,2,0.3165672763308258,-0.5914191937870781,0.9079864701179039,-0.9647700311993386,yoked,17,1.8727565013172425,3
0474-42daaa74-f4db-4440-bce7-a725bdabe5d2,4344-f66f25b9-b27d-401c-bfee-521325f1ed15,3,0.3165672763308258,0.07661325655498669,0.23995401977583913,-0.9647700311993386,yoked,18,1.2047240509751778,4
0474-42daaa74-f4db-4440-bce7-a725bdabe5d2,4344-f66f25b9-b27d-401c-bfee-521325f1ed15,3,0.3165672763308258,0.5319995584255318,-0.215432282094706,-0.9647700311993386,yoked,19,0.7493377491046326,4
0474-42daaa74-f4db-4440-bce7-a725bdabe5d2,4344-f66f25b9-b27d-401c-bfee-521325f1ed15,3,-3.0601503378646493,4.911201960228059,-7.971352298092708,-0.9647700311993386,yoked,20,-7.0065822668933695,4
0474-42daaa74-f4db-4440-bce7-a725bdabe5d2,4344-f66f25b9-b27d-401c-bfee-521325f1ed15,3,0.3165672763308258,-0.3739270931822382,0.6904943695130641,-0.9647700311993386,yoked,21,1.6552644007124027,4
0474-42daaa74-f4db-4440-bce7-a725bdabe5d2,4344-f66f25b9-b27d-401c-bfee-521325f1ed15,4,0.3165672763308258,-0.24462003590296108,0.5611873122337869,-0.9647700311993386,yoked,23,1.5259573434331255,5
0474-42daaa74-f4db-4440-bce7-a725bdabe5d2,4344-f66f25b9-b27d-401c-bfee-521325f1ed15,4,0.3165672763308258,-0.4808507787401121,0.797418055070938,-0.9647700311993386,yoked,24,1.7621880862702766,5
0474-42daaa74-f4db-4440-bce7-a725bdabe5d2,4344-f66f25b9-b27d-401c-bfee-521325f1ed15,4,0.3165672763308258,-0.04927331366847487,0.3658405899993007,-0.9647700311993386,yoked,25,1.3306106211986393,5
0474-42daaa74-f4db-4440-bce7-a725bdabe5d2,4344-f66f25b9-b27d-401c-bfee-521325f1ed15,4,0.3165672763308258,-0.5171730057984881,0.833740282129314,-0.9647700311993386,yoked,26,1.7985103133286526,5
0474-42daaa74-f4db-4440-bce7-a725bdabe5d2,4344-f66f25b9-b27d-401c-bfee-521325f1ed15,5,0.3165672763308258,0.14307570480883164,0.17349157152199418,-0.9647700311993386,yoked,27,1.1382616027213328,6
0474-42daaa74-f4db-4440-bce7-a725bdabe5d2,4344-f66f25b9-b27d-401c-bfee-521325f1ed15,5,-3.0601503378646493,-0.18543688991770146,-2.874713447946948,-0.9647700311993386,yoked,28,-1.9099434167476093,6
0474-42daaa74-f4db-4440-bce7-a725bdabe5d2,4344-f66f25b9-b27d-401c-bfee-521325f1ed15,5,0.3165672763308258,0.11735864252173103,0.1992086338090948,-0.9647700311993386,yoked,29,1.1639786650084334,6
0474-42daaa74-f4db-4440-bce7-a725bdabe5d2,4344-f66f25b9-b27d-401c-bfee-521325f1ed15,5,0.3165672763308258,-0.33194986960397743,0.6485171459348033,-0.9647700311993386,yoked,30,1.6132871771341417,6
0474-42daaa74-f4db-4440-bce7-a725bdabe5d2,4344-f66f25b9-b27d-401c-bfee-521325f1ed15,6,0.3165672763308258,-0.2572599223943878,0.5738271987252136,-0.9647700311993386,yoked,31,1.538597229924552,7
0474-42daaa74-f4db-4440-bce7-a725bdabe5d2,4344-f66f25b9-b27d-401c-bfee-521325f1ed15,6,0.3165672763308258,-0.19035848038667905,0.5069257567175048,-0.9647700311993386,yoked,32,1.4716957879168433,7
0474-42daaa74-f4db-4440-bce7-a725bdabe5d2,4344-f66f25b9-b27d-401c-bfee-521325f1ed15,6,0.3165672763308258,-0.4268825132018406,0.7434497895326664,-0.9647700311993386,yoked,33,1.708219820732005,7
0474-42daaa74-f4db-4440-bce7-a725bdabe5d2,4344-f66f25b9-b27d-401c-bfee-521325f1ed15,6,0.3165672763308258,-0.14552176707088674,0.46208904340171253,-0.9647700311993386,yoked,35,1.426859074601051,7
0474-42daaa74-f4db-4440-bce7-a725bdabe5d2,4344-f66f25b9-b27d-401c-bfee-521325f1ed15,7,0.3165672763308258,-0.5264629382646517,0.8430302145954776,-0.9647700311993386,yoked,36,1.8078002457948161,8
0474-42daaa74-f4db-4440-bce7-a725bdabe5d2,4344-f66f25b9-b27d-401c-bfee-521325f1ed15,7,0.3165672763308258,-0.6036155173626836,0.9201827936935094,-0.9647700311993386,yoked,39,1.884952824892848,8
0474-42daaa74-f4db-4440-bce7-a725bdabe5d2,4344-f66f25b9-b27d-401c-bfee-521325f1ed15,7,0.3165672763308258,-0.539944130976201,0.8565114073070268,-0.9647700311993386,yoked,40,1.8212814385063654,8
0474-42daaa74-f4db-4440-bce7-a725bdabe5d2,4344-f66f25b9-b27d-401c-bfee-521325f1ed15,7,0.3165672763308258,-0.30914899355429004,0.6257162698851159,-0.9647700311993386,yoked,41,1.5904863010844545,8
0497-e68f603b-1778-430a-83a0-4a52405f76b3,1993-b2fda10b-f02f-4ef8-a2f3-e482ead74bb9,0,-1.3599353488675896,2.671007026352706,-4.030942375220295,-1.1601986238808317,yoked,0,-2.8707437513394636,1
0497-e68f603b-1778-430a-83a0-4a52405f76b3,1993-b2fda10b-f02f-4ef8-a2f3-e482ead74bb9,0,0.7123470875020708,1.5658597813252948,-0.853512693823224,-1.1601986238808317,yoked,2,0.3066859300576077,1
0497-e68f603b-1778-430a-83a0-4a52405f76b3,1993-b2fda10b-f02f-4ef8-a2f3-e482ead74bb9,0,-1.3599353488675896,-0.5045579646334855,-0.8553773842341041,-1.1601986238808317,yoked,6,0.3048212396467276,1
0497-e68f603b-1778-430a-83a0-4a52405f76b3,1993-b2fda10b-f02f-4ef8-a2f3-e482ead74bb9,0,0.7123470875020708,-0.3866908702522264,1.0990379577542972,-1.1601986238808317,yoked,8,2.259236581635129,1
0497-e68f603b-1778-430a-83a0-4a52405f76b3,1993-b2fda10b-f02f-4ef8-a2f3-e482ead74bb9,1,0.7123470875020708,-0.8098606349363591,1.5222077224384298,-1.1601986238808317,yoked,9,2.6824063463192616,2
0497-e68f603b-1778-430a-83a0-4a52405f76b3,1993-b2fda10b-f02f-4ef8-a2f3-e482ead74bb9,1,0.7123470875020708,-0.31802701898635083,1.0303741064884215,-1.1601986238808317,yoked,10,2.1905727303692535,2
0497-e68f603b-1778-430a-83a0-4a52405f76b3,1993-b2fda10b-f02f-4ef8-a2f3-e482ead74bb9,1,-1.3599353488675896,-0.5778927917837149,-0.7820425570838747,-1.1601986238808317,yoked,11,0.378156066796957,2
0497-e68f603b-1778-430a-83a0-4a52405f76b3,1993-b2fda10b-f02f-4ef8-a2f3-e482ead74bb9,1,0.7123470875020708,-0.04325453116527852,0.7556016186673493,-1.1601986238808317,yoked,12,1.915800242548181,2
0497-e68f603b-1778-430a-83a0-4a52405f76b3,1993-b2fda10b-f02f-4ef8-a2f3-e482ead74bb9,2,0.7123470875020708,0.2199267387985999,0.49242034870347084,-1.1601986238808317,yoked,13,1.6526189725843026,3
0497-e68f603b-1778-430a-83a0-4a52405f76b3,1993-b2fda10b-f02f-4ef8-a2f3-e482ead74bb9,2,0.7123470875020708,-0.7745491783296155,1.4868962658316862,-1.1601986238808317,yoked,14,2.647094889712518,3
0497-e68f603b-1778-430a-83a0-4a52405f76b3,1993-b2fda10b-f02f-4ef8-a2f3-e482ead74bb9,2,0.7123470875020708,-0.5066883345633704,1.2190354220654411,-1.1601986238808317,yoked,15,2.379234045946273,3
0497-e68f603b-1778-430a-83a0-4a52405f76b3,1993-b2fda10b-f02f-4ef8-a2f3-e482ead74bb9,2,0.7123470875020708,-0.8757489183044873,1.588096005806558,-1.1601986238808317,yoked,16,2.74829462968739,3
0497-e68f603b-1778-430a-83a0-4a52405f76b3,1993-b2fda10b-f02f-4ef8-a2f3-e482ead74bb9,3,0.7123470875020708,-0.1353846964890792,0.84773178399115,-1.1601986238808317,yoked,18,2.0079304078719815,4
0497-e68f603b-1778-430a-83a0-4a52405f76b3,1993-b2fda10b-f02f-4ef8-a2f3-e482ead74bb9,3,-1.3599353488675896,-0.7968625934414628,-0.5630727554261268,-1.1601986238808317,yoked,19,0.5971258684547049,4
0497-e68f603b-1778-430a-83a0-4a52405f76b3,1993-b2fda10b-f02f-4ef8-a2f3-e482ead74bb9,3,0.7123470875020708,-1.183753090180803,1.8961001776828739,-1.1601986238808317,yoked,20,3.0562988015637056,4
0497-e68f603b-1778-430a-83a0-4a52405f76b3,1993-b2fda10b-f02f-4ef8-a2f3-e482ead74bb9,3,-1.3599353488675896,-0.7570550690961848,-0.6028802797714048,-1.1601986238808317,yoked,21,0.5573183441094269,4
0497-e68f603b-1778-430a-83a0-4a52405f76b3,1993-b2fda10b-f02f-4ef8-a2f3-e482ead74bb9,4,-1.3599353488675896,-0.11021662207568139,-1.249718726791908,-1.1601986238808317,yoked,22,-0.08952010291107637,5
0497-e68f603b-1778-430a-83a0-4a52405f76b3,1993-b2fda10b-f02f-4ef8-a2f3-e482ead74bb9,4,0.7123470875020708,-0.3491260309561764,1.061473118458247,-1.1601986238808317,yoked,24,2.221671742339079,5
0497-e68f603b-1778-430a-83a0-4a52405f76b3,1993-b2fda10b-f02f-4ef8-a2f3-e482ead74bb9,4,-1.3599353488675896,1.0340647572983839,-2.3940001061659735,-1.1601986238808317,yoked,25,-1.2338014822851417,5
0497-e68f603b-1778-430a-83a0-4a52405f76b3,1993-b2fda10b-f02f-4ef8-a2f3-e482ead74bb9,4,-1.3599353488675896,1.8662877409175391,-3.2262230897851287,-1.1601986238808317,yoked,26,-2.066024465904297,5
0497-e68f603b-1778-430a-83a0-4a52405f76b3,1993-b2fda10b-f02f-4ef8-a2f3-e482ead74bb9,5,-1.3599353488675896,2.0311125600145608,-3.3910479088821504,-1.1601986238808317,yoked,27,-2.2308492850013186,6
0497-e68f603b-1778-430a-83a0-4a52405f76b3,1993-b2fda10b-f02f-4ef8-a2f3-e482ead74bb9,5,0.7123470875020708,-0.8098606349363591,1.5222077224384298,-1.1601986238808317,yoked,29,2.6824063463192616,6
0497-e68f603b-1778-430a-83a0-4a52405f76b3,1993-b2fda10b-f02f-4ef8-a2f3-e482ead74bb9,5,-1.3599353488675896,0.6945938751789893,-2.054529224046579,-1.1601986238808317,yoked,30,-0.8943306001657474,6
0497-e68f603b-1778-430a-83a0-4a52405f76b3,1993-b2fda10b-f02f-4ef8-a2f3-e482ead74bb9,5,0.7123470875020708,0.19249797981769481,0.519849107684376,-1.1601986238808317,yoked,31,1.6800477315652076,6
0497-e68f603b-1778-430a-83a0-4a52405f76b3,1993-b2fda10b-f02f-4ef8-a2f3-e482ead74bb9,6,0.7123470875020708,0.5910897604051323,0.12125732709693848,-1.1601986238808317,yoked,32,1.28145595097777,7
0497-e68f603b-1778-430a-83a0-4a52405f76b3,1993-b2fda10b-f02f-4ef8-a2f3-e482ead74bb9,6,0.7123470875020708,-0.955618998334497,1.667966085836568,-1.1601986238808317,yoked,33,2.8281647097173996,7
0497-e68f603b-1778-430a-83a0-4a52405f76b3,1993-b2fda10b-f02f-4ef8-a2f3-e482ead74bb9,6,0.7123470875020708,-0.39590310340869916,1.1082501909107698,-1.1601986238808317,yoked,34,2.2684488147916015,7
0497-e68f603b-1778-430a-83a0-4a52405f76b3,1993-b2fda10b-f02f-4ef8-a2f3-e482ead74bb9,6,0.7123470875020708,-0.17403002836033785,0.8863771158624086,-1.1601986238808317,yoked,35,2.0465757397432403,7
0497-e68f603b-1778-430a-83a0-4a52405f76b3,1993-b2fda10b-f02f-4ef8-a2f3-e482ead74bb9,7,0.7123470875020708,-0.9493955993136843,1.6617426868157552,-1.1601986238808317,yoked,37,2.821941310696587,8
0497-e68f603b-1778-430a-83a0-4a52405f76b3,1993-b2fda10b-f02f-4ef8-a2f3-e482ead74bb9,7,0.7123470875020708,-1.1986320722784578,1.9109791597805286,-1.1601986238808317,yoked,38,3.0711777836613603,8
0497-e68f603b-1778-430a-83a0-4a52405f76b3,1993-b2fda10b-f02f-4ef8-a2f3-e482ead74bb9,7,0.7123470875020708,1.271268595925789,-0.5589215084237182,-1.1601986238808317,yoked,42,0.6012771154571135,8
0497-e68f603b-1778-430a-83a0-4a52405f76b3,1993-b2fda10b-f02f-4ef8-a2f3-e482ead74bb9,7,-1.3599353488675896,0.47539996579152694,-1.8353353146591165,-1.1601986238808317,yoked,44,-0.6751366907782848,8
0506-ffd17693-d31e-486f-a0f9-fbe2ba26ee2c,3480-03933bf3-5e7e-4ecd-b151-7ae57e6ae826,0,0.8680260551145138,1.4402947773082095,-0.5722687221936957,-0.6664456894963634,scrambled40,0,0.09417696730266767,1
0506-ffd17693-d31e-486f-a0f9-fbe2ba26ee2c,3480-03933bf3-5e7e-4ecd-b151-7ae57e6ae826,0,0.8680260551145138,1.5223849392540272,-0.6543588841395134,-0.6664456894963634,scrambled40,1,0.012086805356850028,1
0506-ffd17693-d31e-486f-a0f9-fbe2ba26ee2c,3480-03933bf3-5e7e-4ecd-b151-7ae57e6ae826,0,0.8680260551145138,1.434928809766429,-0.5669027546519152,-0.6664456894963634,scrambled40,4,0.0995429348444482,1
0506-ffd17693-d31e-486f-a0f9-fbe2ba26ee2c,3480-03933bf3-5e7e-4ecd-b151-7ae57e6ae826,0,-1.1160334994329462,-0.24378110243263218,-0.872252397000314,-0.6664456894963634,scrambled40,7,-0.20580670750395058,1
0506-ffd17693-d31e-486f-a0f9-fbe2ba26ee2c,4395-6cdb78e3-0c3f-4526-9670-8e4c1dcbc542,1,-1.1160334994329462,1.1149735920089154,-2.2310070914418616,-0.6664456894963634,scrambled40,9,-1.564561401945498,2
0506-ffd17693-d31e-486f-a0f9-fbe2ba26ee2c,4395-6cdb78e3-0c3f-4526-9670-8e4c1dcbc542,1,0.8680260551145138,1.4419437875176906,-0.5739177324031768,-0.6664456894963634,scrambled40,10,0.09252795709318662,2
0506-ffd17693-d31e-486f-a0f9-fbe2ba26ee2c,4395-6cdb78e3-0c3f-4526-9670-8e4c1dcbc542,1,-1.1160334994329462,0.45547570528971365,-1.5715092047226598,-0.6664456894963634,scrambled40,11,-0.9050635152262964,2
0506-ffd17693-d31e-486f-a0f9-fbe2ba26ee2c,4395-6cdb78e3-0c3f-4526-9670-8e4c1dcbc542,1,0.8680260551145138,1.2925651828312292,-0.4245391277167154,-0.6664456894963634,scrambled40,12,0.24190656177964798,2
0506-ffd17693-d31e-486f-a0f9-fbe2ba26ee2c,7637-26870e81-faae-4521-a2e9-10424526a22c,2,0.8680260551145138,-0.1924809555533961,1.06050701066791,-0.6664456894963634,scrambled40,13,1.7269527001642735,3
0506-ffd17693-d31e-486f-a0f9-fbe2ba26ee2c,7637-26870e81-faae-4521-a2e9-10424526a22c,2,0.8680260551145138,0.10307964551267502,0.7649464096018388,-0.6664456894963634,scrambled40,15,1.4313920990982023,3
0506-ffd17693-d31e-486f-a0f9-fbe2ba26ee2c,7637-26870e81-faae-4521-a2e9-10424526a22c,2,-1.1160334994329462,-0.9074899338319005,-0.2085435656010457,-0.6664456894963634,scrambled40,16,0.4579021238953177,3
0506-ffd17693-d31e-486f-a0f9-fbe2ba26ee2c,7637-26870e81-faae-4521-a2e9-10424526a22c,2,-1.1160334994329462,0.00316120665089247,-1.1191947060838385,-0.6664456894963634,scrambled40,17,-0.45274901658747513,3
0506-ffd17693-d31e-486f-a0f9-fbe2ba26ee2c,9075-d6c9b0a6-bfb2-4148-ae19-d0da518aef97,3,-1.1160334994329462,-1.1266903312716654,0.010656831838719238,-0.6664456894963634,scrambled40,18,0.6771025213350826,4
0506-ffd17693-d31e-486f-a0f9-fbe2ba26ee2c,9075-d6c9b0a6-bfb2-4148-ae19-d0da518aef97,3,0.8680260551145138,-0.9592582336689166,1.8272842887834304,-0.6664456894963634,scrambled40,19,2.4937299782797937,4
0506-ffd17693-d31e-486f-a0f9-fbe2ba26ee2c,9075-d6c9b0a6-bfb2-4148-ae19-d0da518aef97,3,0.8680260551145138,-0.9141471500948929,1.7821732052094066,-0.6664456894963634,scrambled40,20,2.44861889470577,4
0506-ffd17693-d31e-486f-a0f9-fbe2ba26ee2c,9075-d6c9b0a6-bfb2-4148-ae19-d0da518aef97,3,-1.1160334994329462,1.5111480878468382,-2.627181587279784,-0.6664456894963634,scrambled40,21,-1.9607358977834206,4
0506-ffd17693-d31e-486f-a0f9-fbe2ba26ee2c,7438-c77fa69e-d41c-41a4-b530-fc2809c07323,4,0.8680260551145138,-1.2376999285081836,2.1057259836226976,-0.6664456894963634,scrambled40,22,2.772171673119061,5
0506-ffd17693-d31e-486f-a0f9-fbe2ba26ee2c,7438-c77fa69e-d41c-41a4-b530-fc2809c07323,4,0.8680260551145138,0.40886118337818766,0.45916487173632614,-0.6664456894963634,scrambled40,23,1.1256105612326897,5
0506-ffd17693-d31e-486f-a0f9-fbe2ba26ee2c,7438-c77fa69e-d41c-41a4-b530-fc2809c07323,4,0.8680260551145138,-0.7875453084817792,1.655571363596293,-0.6664456894963634,scrambled40,24,2.3220170530926563,5
0506-ffd17693-d31e-486f-a0f9-fbe2ba26ee2c,7438-c77fa69e-d41c-41a4-b530-fc2809c07323,4,-1.1160334994329462,0.47413994347781435,-1.5901734429107606,-0.6664456894963634,scrambled40,25,-0.9237277534143972,5
0506-ffd17693-d31e-486f-a0f9-fbe2ba26ee2c,1820-86afdf51-4b4c-43a9-a9e1-e6e20618de1b,5,-1.1160334994329462,-0.7684944230670189,-0.3475390763659273,-0.6664456894963634,scrambled40,27,0.3189066131304361,6
0506-ffd17693-d31e-486f-a0f9-fbe2ba26ee2c,1820-86afdf51-4b4c-43a9-a9e1-e6e20618de1b,5,0.8680260551145138,-0.3570761390049501,1.225102194119464,-0.6664456894963634,scrambled40,28,1.8915478836158273,6
0506-ffd17693-d31e-486f-a0f9-fbe2ba26ee2c,1820-86afdf51-4b4c-43a9-a9e1-e6e20618de1b,5,0.8680260551145138,-0.6795046022449654,1.5475306573594794,-0.6664456894963634,scrambled40,29,2.213976346855843,6
0506-ffd17693-d31e-486f-a0f9-fbe2ba26ee2c,1820-86afdf51-4b4c-43a9-a9e1-e6e20618de1b,5,0.8680260551145138,-1.196345756515113,2.064371811629627,-0.6664456894963634,scrambled40,30,2.7308175011259905,6
0506-ffd17693-d31e-486f-a0f9-fbe2ba26ee2c,9817-6f2a66db-fc24-482d-aa20-1980ad6f524e,6,-1.1160334994329462,-0.8021473449630234,-0.31388615446992274,-0.6664456894963634,scrambled40,31,0.35255953502644066,7
0506-ffd17693-d31e-486f-a0f9-fbe2ba26ee2c,9817-6f2a66db-fc24-482d-aa20-1980ad6f524e,6,0.8680260551145138,-1.3189772029652171,2.1870032580797307,-0.6664456894963634,scrambled40,32,2.8534489475760942,7
0506-ffd17693-d31e-486f-a0f9-fbe2ba26ee2c,9817-6f2a66db-fc24-482d-aa20-1980ad6f524e,6,0.8680260551145138,1.0574504879242925,-0.18942443280977872,-0.6664456894963634,scrambled40,34,0.4770212566865847,7
0506-ffd17693-d31e-486f-a0f9-fbe2ba26ee2c,9817-6f2a66db-fc24-482d-aa20-1980ad6f524e,6,-1.1160334994329462,0.9569274763452996,-2.072960975778246,-0.6664456894963634,scrambled40,35,-1.4065152862818824,7
0506-ffd17693-d31e-486f-a0f9-fbe2ba26ee2c,5616-7114c020-0e81-482c-952b-b26fc66076a0,7,0.8680260551145138,-0.5029588522473012,1.370984907361815,-0.6664456894963634,scrambled40,36,2.0374305968581785,8
0506-ffd17693-d31e-486f-a0f9-fbe2ba26ee2c,5616-7114c020-0e81-482c-952b-b26fc66076a0,7,-1.1160334994329462,-0.9208201551288429,-0.1952133443041033,-0.6664456894963634,scrambled40,39,0.4712323451922601,8
0506-ffd17693-d31e-486f-a0f9-fbe2ba26ee2c,5616-7114c020-0e81-482c-952b-b26fc66076a0,7,-1.1160334994329462,-1.244116404696989,0.12808290526404287,-0.6664456894963634,scrambled40,41,0.7945285947604063,8
0506-ffd17693-d31e-486f-a0f9-fbe2ba26ee2c,5616-7114c020-0e81-482c-952b-b26fc66076a0,7,-1.1160334994329462,0.9421989995647029,-2.058232498997649,-0.6664456894963634,scrambled40,43,-1.3917868095012853,8
0573-746746f5-4fe4-4ea0-a022-039b56ce3ecb,4853-a05bfdd7-095c-4b93-bdde-2b99fd29c7a2,0,-2.287186402313343,0.18160924062165346,-2.4687956429349964,-1.3374695802067476,scrambled40,0,-1.1313260627282489,1
0573-746746f5-4fe4-4ea0-a022-039b56ce3ecb,4853-a05bfdd7-095c-4b93-bdde-2b99fd29c7a2,0,0.4235530374654338,1.6848131305963308,-1.2612600931308968,-1.3374695802067476,scrambled40,2,0.07620948707585073,1
0573-746746f5-4fe4-4ea0-a022-039b56ce3ecb,4853-a05bfdd7-095c-4b93-bdde-2b99fd29c7a2,0,0.4235530374654338,2.0940688956243108,-1.6705158581588768,-1.3374695802067476,scrambled40,5,-0.33304627795212927,1
0573-746746f5-4fe4-4ea0-a022-039b56ce3ecb,4853-a05bfdd7-095c-4b93-bdde-2b99fd29c7a2,0,0.4235530374654338,0.3728597640676403,0.050693273397793503,-1.3374695802067476,scrambled40,7,1.3881628536045412,1
0573-746746f5-4fe4-4ea0-a022-039b56ce3ecb,6964-d6de9966-f3dd-45df-8d24-d5bfd5d46eb8,1,0.4235530374654338,-0.21553900049501615,0.63909203796045,-1.3374695802067476,scrambled40,9,1.9765616181671977,2
0573-746746f5-4fe4-4ea0-a022-039b56ce3ecb,6964-d6de9966-f3dd-45df-8d24-d5bfd5d46eb8,1,0.4235530374654338,-1.0426752150928098,1.4662282525582437,-1.3374695802067476,scrambled40,10,2.8036978327649913,2
0573-746746f5-4fe4-4ea0-a022-039b56ce3ecb,6964-d6de9966-f3dd-45df-8d24-d5bfd5d46eb8,1,0.4235530374654338,0.22397682639257305,0.19957621107286078,-1.3374695802067476,scrambled40,11,1.5370457912796083,2
0573-746746f5-4fe4-4ea0-a022-039b56ce3ecb,6964-d6de9966-f3dd-45df-8d24-d5bfd5d46eb8,1,0.4235530374654338,-1.0267426328598066,1.4502956703252403,-1.3374695802067476,scrambled40,12,2.787765250531988,2
0573-746746f5-4fe4-4ea0-a022-039b56ce3ecb,3558-8fa206a2-9b8c-4d67-a4ab-0832dc0d0f25,2,0.4235530374654338,0.5445085032778232,-0.12095546581238936,-1.3374695802067476,scrambled40,14,1.216514114394358,3
0573-746746f5-4fe4-4ea0-a022-039b56ce3ecb,3558-8fa206a2-9b8c-4d67-a4ab-0832dc0d0f25,2,0.4235530374654338,-0.7711598181295737,1.1947128555950075,-1.3374695802067476,scrambled40,15,2.5321824358017553,3
0573-746746f5-4fe4-4ea0-a022-039b56ce3ecb,3558-8fa206a2-9b8c-4d67-a4ab-0832dc0d0f25,2,0.4235530374654338,-0.0019073780631625316,0.42546041552859637,-1.3374695802067476,scrambled40,16,1.762929995735344,3
0573-746746f5-4fe4-4ea0-a022-039b56ce3ecb,3558-8fa206a2-9b8c-4d67-a4ab-0832dc0d0f25,2,0.4235530374654338,1.2647319090286775,-0.8411788715632437,-1.3374695802067476,scrambled40,17,0.4962907086435039,3
0573-746746f5-4fe4-4ea0-a022-039b56ce3ecb,7053-d1f771d6-a55b-4681-961f-5a9ebb43cbdb,3,0.4235530374654338,-0.7955590454707429,1.2191120829361766,-1.3374695802067476,scrambled40,18,2.556581663142924,4
0573-746746f5-4fe4-4ea0-a022-039b56ce3ecb,7053-d1f771d6-a55b-4681-961f-5a9ebb43cbdb,3,0.4235530374654338,-0.09100611334443323,0.514559150809867,-1.3374695802067476,scrambled40,19,1.8520287310166146,4
0573-746746f5-4fe4-4ea0-a022-039b56ce3ecb,7053-d1f771d6-a55b-4681-961f-5a9ebb43cbdb,3,0.4235530374654338,-0.6825040180291928,1.1060570554946265,-1.3374695802067476,scrambled40,21,2.443526635701374,4
0573-746746f5-4fe4-4ea0-a022-039b56ce3ecb,7053-d1f771d6-a55b-4681-961f-5a9ebb43cbdb,3,-2.287186402313343,-1.1864731356502018,-1.100713266663141,-1.3374695802067476,scrambled40,22,0.2367563135436066,4
0573-746746f5-4fe4-4ea0-a022-039b56ce3ecb,6725-7351d615-c816-4608-8554-afecf47c4b42,4,0.4235530374654338,-0.05348982839118426,0.4770428658566181,-1.3374695802067476,scrambled40,23,1.8145124460633657,5
0573-746746f5-4fe4-4ea0-a022-039b56ce3ecb,6725-7351d615-c816-4608-8554-afecf47c4b42,4,0.4235530374654338,0.14623930701332416,0.27731373045210966,-1.3374695802067476,scrambled40,24,1.6147833106588572,5
0573-746746f5-4fe4-4ea0-a022-039b56ce3ecb,6725-7351d615-c816-4608-8554-afecf47c4b42,4,-2.287186402313343,1.7943808100729681,-4.081567212386311,-1.3374695802067476,scrambled40,25,-2.7440976321795634,5
0573-746746f5-4fe4-4ea0-a022-039b56ce3ecb,6725-7351d615-c816-4608-8554-afecf47c4b42,4,0.4235530374654338,-0.6927347904710427,1.1162878279364765,-1.3374695802067476,scrambled40,26,2.453757408143224,5
0573-746746f5-4fe4-4ea0-a022-039b56ce3ecb,1993-b2fda10b-f02f-4ef8-a2f3-e482ead74bb9,5,0.4235530374654338,1.1325082724978588,-0.708955235032425,-1.3374695802067476,scrambled40,27,0.6285143451743226,6
0573-746746f5-4fe4-4ea0-a022-039b56ce3ecb,1993-b2fda10b-f02f-4ef8-a2f3-e482ead74bb9,5,0.4235530374654338,-1.3762861068760812,1.7998391443415152,-1.3374695802067476,scrambled40,28,3.1373087245482627,6
0573-746746f5-4fe4-4ea0-a022-039b56ce3ecb,1993-b2fda10b-f02f-4ef8-a2f3-e482ead74bb9,5,0.4235530374654338,-0.6114688667538405,1.0350219042192743,-1.3374695802067476,scrambled40,29,2.372491484426022,6
0573-746746f5-4fe4-4ea0-a022-039b56ce3ecb,1993-b2fda10b-f02f-4ef8-a2f3-e482ead74bb9,5,-2.287186402313343,0.9157733798284986,-3.2029597821418414,-1.3374695802067476,scrambled40,30,-1.8654902019350939,6
0573-746746f5-4fe4-4ea0-a022-039b56ce3ecb,0647-0ece0513-aa05-4676-bb63-3845126ce2c1,6,0.4235530374654338,-1.7473294537317874,2.1708824911972213,-1.3374695802067476,scrambled40,31,3.508352071403969,7
0573-746746f5-4fe4-4ea0-a022-039b56ce3ecb,0647-0ece0513-aa05-4676-bb63-3845126ce2c1,6,-2.287186402313343,0.7111401634741381,-2.998326565787481,-1.3374695802067476,scrambled40,32,-1.6608569855807334,7
0573-746746f5-4fe4-4ea0-a022-039b56ce3ecb,0647-0ece0513-aa05-4676-bb63-3845126ce2c1,6,0.4235530374654338,-0.5153352575816558,0.9388882950470896,-1.3374695802067476,scrambled40,33,2.2763578752538374,7
