gameID,orig_gameID,repetition,acc_norm,rt_norm,bis,bis_baseline,version,trialNum,bis_relative,repetition_1
0055-b8f4d6a3-ff78-4051-bd88-0fb01a2f5764,0055-b8f4d6a3-ff78-4051-bd88-0fb01a2f5764,0,0.1767756953022937,2.3691261874705165,-2.192350492168223,-2.4731277339930013,refgame,3,0.2807772418247785,1
0055-b8f4d6a3-ff78-4051-bd88-0fb01a2f5764,0055-b8f4d6a3-ff78-4051-bd88-0fb01a2f5764,0,0.1767756953022937,0.8929424862937356,-0.716166790991442,-2.4731277339930013,refgame,4,1.7569609430015594,1
0055-b8f4d6a3-ff78-4051-bd88-0fb01a2f5764,0055-b8f4d6a3-ff78-4051-bd88-0fb01a2f5764,0,0.1767756953022937,0.6766096898420284,-0.4998339945397347,-2.4731277339930013,refgame,6,1.9732937394532666,1
0055-b8f4d6a3-ff78-4051-bd88-0fb01a2f5764,0055-b8f4d6a3-ff78-4051-bd88-0fb01a2f5764,0,-5.480046554371104,1.0041131039015185,-6.484159658272623,-2.4731277339930013,refgame,7,-4.011031924279622,1
0055-b8f4d6a3-ff78-4051-bd88-0fb01a2f5764,0055-b8f4d6a3-ff78-4051-bd88-0fb01a2f5764,1,0.1767756953022937,-1.3003767728235378,1.4771524681258315,-2.4731277339930013,refgame,9,3.950280202118833,2
0055-b8f4d6a3-ff78-4051-bd88-0fb01a2f5764,0055-b8f4d6a3-ff78-4051-bd88-0fb01a2f5764,1,0.1767756953022937,-0.05378250620581048,0.2305582015081042,-2.4731277339930013,refgame,10,2.7036859355011056,2
0055-b8f4d6a3-ff78-4051-bd88-0fb01a2f5764,0055-b8f4d6a3-ff78-4051-bd88-0fb01a2f5764,1,0.1767756953022937,-0.15201255573033318,0.3287882510326269,-2.4731277339930013,refgame,11,2.8019159850256283,2
0055-b8f4d6a3-ff78-4051-bd88-0fb01a2f5764,0055-b8f4d6a3-ff78-4051-bd88-0fb01a2f5764,1,0.1767756953022937,1.6592372429134674,-1.4824615476111738,-2.4731277339930013,refgame,12,0.9906661863818276,2
0055-b8f4d6a3-ff78-4051-bd88-0fb01a2f5764,0055-b8f4d6a3-ff78-4051-bd88-0fb01a2f5764,2,0.1767756953022937,0.5950366196936732,-0.41826092439137946,-2.4731277339930013,refgame,13,2.054866809601622,3
0055-b8f4d6a3-ff78-4051-bd88-0fb01a2f5764,0055-b8f4d6a3-ff78-4051-bd88-0fb01a2f5764,2,0.1767756953022937,-0.8259357240896631,1.0027114193919568,-2.4731277339930013,refgame,14,3.475839153384958,3
0055-b8f4d6a3-ff78-4051-bd88-0fb01a2f5764,0055-b8f4d6a3-ff78-4051-bd88-0fb01a2f5764,2,0.1767756953022937,-0.6637536621305571,0.8405293574328507,-2.4731277339930013,refgame,15,3.313657091425852,3
0055-b8f4d6a3-ff78-4051-bd88-0fb01a2f5764,0055-b8f4d6a3-ff78-4051-bd88-0fb01a2f5764,2,0.1767756953022937,0.9601707957940545,-0.7833951004917608,-2.4731277339930013,refgame,16,1.6897326335012406,3
0055-b8f4d6a3-ff78-4051-bd88-0fb01a2f5764,0055-b8f4d6a3-ff78-4051-bd88-0fb01a2f5764,3,0.1767756953022937,1.281123949976085,-1.1043482546737913,-2.4731277339930013,refgame,17,1.36877947931921,4
0055-b8f4d6a3-ff78-4051-bd88-0fb01a2f5764,0055-b8f4d6a3-ff78-4051-bd88-0fb01a2f5764,3,0.1767756953022937,0.028888361556641925,0.14788733374565177,-2.4731277339930013,refgame,18,2.6210150677386532,4
0055-b8f4d6a3-ff78-4051-bd88-0fb01a2f5764,0055-b8f4d6a3-ff78-4051-bd88-0fb01a2f5764,3,0.1767756953022937,0.5077558451244801,-0.33098014982218643,-2.4731277339930013,refgame,19,2.142147584170815,4
0055-b8f4d6a3-ff78-4051-bd88-0fb01a2f5764,0055-b8f4d6a3-ff78-4051-bd88-0fb01a2f5764,3,0.1767756953022937,-0.06143031013667982,0.23820600543897352,-2.4731277339930013,refgame,20,2.711333739431975,4
0055-b8f4d6a3-ff78-4051-bd88-0fb01a2f5764,0055-b8f4d6a3-ff78-4051-bd88-0fb01a2f5764,4,0.1767756953022937,0.24346810428289078,-0.06669240898059708,-2.4731277339930013,refgame,21,2.406435325012404,5
0055-b8f4d6a3-ff78-4051-bd88-0fb01a2f5764,0055-b8f4d6a3-ff78-4051-bd88-0fb01a2f5764,4,0.1767756953022937,1.1270830105560412,-0.9503073152537476,-2.4731277339930013,refgame,22,1.5228204187392538,5
0055-b8f4d6a3-ff78-4051-bd88-0fb01a2f5764,0055-b8f4d6a3-ff78-4051-bd88-0fb01a2f5764,4,0.1767756953022937,-0.8462819854077324,1.023057680710026,-2.4731277339930013,refgame,23,3.496185414703027,5
0055-b8f4d6a3-ff78-4051-bd88-0fb01a2f5764,0055-b8f4d6a3-ff78-4051-bd88-0fb01a2f5764,4,0.1767756953022937,-0.5212118729238777,0.6979875682261714,-2.4731277339930013,refgame,24,3.1711153022191727,5
0055-b8f4d6a3-ff78-4051-bd88-0fb01a2f5764,0055-b8f4d6a3-ff78-4051-bd88-0fb01a2f5764,5,0.1767756953022937,-0.4620055028725567,0.6387811981748504,-2.4731277339930013,refgame,25,3.111908932167852,6
0055-b8f4d6a3-ff78-4051-bd88-0fb01a2f5764,0055-b8f4d6a3-ff78-4051-bd88-0fb01a2f5764,5,0.1767756953022937,-0.959291360521326,1.1360670558236197,-2.4731277339930013,refgame,26,3.609194789816621,6
0055-b8f4d6a3-ff78-4051-bd88-0fb01a2f5764,0055-b8f4d6a3-ff78-4051-bd88-0fb01a2f5764,5,0.1767756953022937,-1.567626384017383,1.7444020793196766,-2.4731277339930013,refgame,27,4.217529813312678,6
0055-b8f4d6a3-ff78-4051-bd88-0fb01a2f5764,0055-b8f4d6a3-ff78-4051-bd88-0fb01a2f5764,5,0.1767756953022937,0.6296429249623052,-0.4528672296600115,-2.4731277339930013,refgame,28,2.02026050433299,6
0055-b8f4d6a3-ff78-4051-bd88-0fb01a2f5764,0055-b8f4d6a3-ff78-4051-bd88-0fb01a2f5764,6,0.1767756953022937,-2.0687414270688356,2.245517122371129,-2.4731277339930013,refgame,29,4.718644856364131,7
0055-b8f4d6a3-ff78-4051-bd88-0fb01a2f5764,0055-b8f4d6a3-ff78-4051-bd88-0fb01a2f5764,6,0.1767756953022937,-0.7911348777481281,0.9679105730504218,-2.4731277339930013,refgame,30,3.4410383070434234,7
0055-b8f4d6a3-ff78-4051-bd88-0fb01a2f5764,0055-b8f4d6a3-ff78-4051-bd88-0fb01a2f5764,6,0.1767756953022937,0.25065874910051833,-0.07388305379822463,-2.4731277339930013,refgame,31,2.399244680194777,7
0055-b8f4d6a3-ff78-4051-bd88-0fb01a2f5764,0055-b8f4d6a3-ff78-4051-bd88-0fb01a2f5764,6,0.1767756953022937,-1.5789633471189402,1.7557390424212338,-2.4731277339930013,refgame,32,4.228866776414235,7
0055-b8f4d6a3-ff78-4051-bd88-0fb01a2f5764,0055-b8f4d6a3-ff78-4051-bd88-0fb01a2f5764,7,0.1767756953022937,0.1855632341981818,-0.008787538895888097,-2.4731277339930013,refgame,37,2.464340195097113,8
0055-b8f4d6a3-ff78-4051-bd88-0fb01a2f5764,0055-b8f4d6a3-ff78-4051-bd88-0fb01a2f5764,7,0.1767756953022937,-0.24139860359739843,0.41817429889969215,-2.4731277339930013,refgame,38,2.8913020328926935,8
0055-b8f4d6a3-ff78-4051-bd88-0fb01a2f5764,0055-b8f4d6a3-ff78-4051-bd88-0fb01a2f5764,7,0.1767756953022937,0.31103790380165147,-0.13426220849935777,-2.4731277339930013,refgame,39,2.3388655254936435,8
0055-b8f4d6a3-ff78-4051-bd88-0fb01a2f5764,0055-b8f4d6a3-ff78-4051-bd88-0fb01a2f5764,7,0.1767756953022937,-0.6285113170749074,0.8052870123772011,-2.4731277339930013,refgame,40,3.2784147463702027,8
0083-885b1822-c1b6-423a-9908-c7a6bf181486,1805-7380a363-46e2-4996-8f66-8207251945a4,0,0.814141443914387,0.08318725821708312,0.7309541856973039,0.8525361281028199,scrambled40,1,-0.12158194240551601,1
0083-885b1822-c1b6-423a-9908-c7a6bf181486,1805-7380a363-46e2-4996-8f66-8207251945a4,0,0.814141443914387,-1.6759212870837104,2.4900627309980976,0.8525361281028199,scrambled40,2,1.6375266028952777,1
0083-885b1822-c1b6-423a-9908-c7a6bf181486,1805-7380a363-46e2-4996-8f66-8207251945a4,0,0.814141443914387,1.1306004522638526,-0.3164590083494656,0.8525361281028199,scrambled40,5,-1.1689951364522855,1
0083-885b1822-c1b6-423a-9908-c7a6bf181486,1805-7380a363-46e2-4996-8f66-8207251945a4,0,0.814141443914387,0.30855483984904336,0.5055866040653436,0.8525361281028199,scrambled40,6,-0.34694952403747625,1
0083-885b1822-c1b6-423a-9908-c7a6bf181486,9760-9d40f16f-225c-4774-ad0c-0d110657ce06,1,0.814141443914387,-1.2302415295292966,2.0443829734436836,0.8525361281028199,scrambled40,9,1.1918468453408637,2
0083-885b1822-c1b6-423a-9908-c7a6bf181486,9760-9d40f16f-225c-4774-ad0c-0d110657ce06,1,0.814141443914387,-0.13554353281270115,0.9496849767270882,0.8525361281028199,scrambled40,10,0.09714884862426831,2
0083-885b1822-c1b6-423a-9908-c7a6bf181486,9760-9d40f16f-225c-4774-ad0c-0d110657ce06,1,-1.189899033413335,1.6815732054539416,-2.871472238867277,0.8525361281028199,scrambled40,11,-3.7240083669700965,2
0083-885b1822-c1b6-423a-9908-c7a6bf181486,9760-9d40f16f-225c-4774-ad0c-0d110657ce06,1,0.814141443914387,-0.6253510185202482,1.4394924624346352,0.8525361281028199,scrambled40,12,0.5869563343318154,2
0083-885b1822-c1b6-423a-9908-c7a6bf181486,1726-06f2e0d2-bc8d-4ea5-a41d-ca0d3d0c9b7f,2,0.814141443914387,0.38463449280579337,0.42950695110859366,0.8525361281028199,scrambled40,13,-0.4230291769942262,3
0083-885b1822-c1b6-423a-9908-c7a6bf181486,1726-06f2e0d2-bc8d-4ea5-a41d-ca0d3d0c9b7f,2,-1.189899033413335,0.705839891539338,-1.895738924952673,0.8525361281028199,scrambled40,14,-2.748275053055493,3
0083-885b1822-c1b6-423a-9908-c7a6bf181486,1726-06f2e0d2-bc8d-4ea5-a41d-ca0d3d0c9b7f,2,0.814141443914387,0.8006098390925951,0.013531604821791943,0.8525361281028199,scrambled40,15,-0.8390045232810279,3
0083-885b1822-c1b6-423a-9908-c7a6bf181486,1726-06f2e0d2-bc8d-4ea5-a41d-ca0d3d0c9b7f,2,0.814141443914387,0.2636136553274751,0.550527788586912,0.8525361281028199,scrambled40,17,-0.3020083395159079,3
0083-885b1822-c1b6-423a-9908-c7a6bf181486,1313-2c096fb4-652d-48d2-9a7f-0d38305eea63,3,0.814141443914387,-0.6058074780597469,1.419948921974134,0.8525361281028199,scrambled40,18,0.567412793871314,4
0083-885b1822-c1b6-423a-9908-c7a6bf181486,1313-2c096fb4-652d-48d2-9a7f-0d38305eea63,3,0.814141443914387,-1.8182080466882238,2.6323494906026106,0.8525361281028199,scrambled40,19,1.7798133624997907,4
0083-885b1822-c1b6-423a-9908-c7a6bf181486,1313-2c096fb4-652d-48d2-9a7f-0d38305eea63,3,0.814141443914387,-1.3175431083879874,2.1316845523023744,0.8525361281028199,scrambled40,20,1.2791484241995545,4
0083-885b1822-c1b6-423a-9908-c7a6bf181486,1313-2c096fb4-652d-48d2-9a7f-0d38305eea63,3,-1.189899033413335,-0.08890845059576553,-1.1009905828175695,0.8525361281028199,scrambled40,21,-1.9535267109203893,4
0083-885b1822-c1b6-423a-9908-c7a6bf181486,6772-f6162dc3-0f16-4174-9af4-c7b608b53734,4,0.814141443914387,-2.0078687563099407,2.8220102002243275,0.8525361281028199,scrambled40,22,1.9694740721215076,5
0083-885b1822-c1b6-423a-9908-c7a6bf181486,6772-f6162dc3-0f16-4174-9af4-c7b608b53734,4,0.814141443914387,0.5346796379429362,0.27946180597145087,0.8525361281028199,scrambled40,23,-0.573074322131369,5
0083-885b1822-c1b6-423a-9908-c7a6bf181486,6772-f6162dc3-0f16-4174-9af4-c7b608b53734,4,-1.189899033413335,-0.7495424843678501,-0.44035654904548494,0.8525361281028199,scrambled40,24,-1.2928926771483047,5
0083-885b1822-c1b6-423a-9908-c7a6bf181486,6772-f6162dc3-0f16-4174-9af4-c7b608b53734,4,0.814141443914387,-0.020694258468240138,0.8348357023826272,0.8525361281028199,scrambled40,26,-0.017700425720192703,5
0083-885b1822-c1b6-423a-9908-c7a6bf181486,8785-1369eab7-492d-453a-9260-2eede2e2c5fd,5,-1.189899033413335,1.0054275866379774,-2.195326620051312,0.8525361281028199,scrambled40,27,-3.047862748154132,6
0083-885b1822-c1b6-423a-9908-c7a6bf181486,8785-1369eab7-492d-453a-9260-2eede2e2c5fd,5,0.814141443914387,-0.6329016779404534,1.4470431218548403,0.8525361281028199,scrambled40,28,0.5945069937520204,6
0083-885b1822-c1b6-423a-9908-c7a6bf181486,8785-1369eab7-492d-453a-9260-2eede2e2c5fd,5,-1.189899033413335,2.0657824906332993,-3.2556815240466346,0.8525361281028199,scrambled40,30,-4.108217652149454,6
0083-885b1822-c1b6-423a-9908-c7a6bf181486,8785-1369eab7-492d-453a-9260-2eede2e2c5fd,5,0.814141443914387,0.45989069586487036,0.3542507480495167,0.8525361281028199,scrambled40,31,-0.4982853800533032,6
0083-885b1822-c1b6-423a-9908-c7a6bf181486,4624-1c4fea8e-3c8f-472b-be2c-2cf5325d7939,6,-1.189899033413335,0.29636453802382073,-1.4862635714371557,0.8525361281028199,scrambled40,32,-2.3387996995399756,7
0083-885b1822-c1b6-423a-9908-c7a6bf181486,4624-1c4fea8e-3c8f-472b-be2c-2cf5325d7939,6,-1.189899033413335,0.4338352082315326,-1.6237342416448677,0.8525361281028199,scrambled40,33,-2.4762703697476875,7
0083-885b1822-c1b6-423a-9908-c7a6bf181486,4624-1c4fea8e-3c8f-472b-be2c-2cf5325d7939,6,0.814141443914387,-0.03223170720723428,0.8463731511216213,0.8525361281028199,scrambled40,34,-0.006162976981198609,7
0083-885b1822-c1b6-423a-9908-c7a6bf181486,4624-1c4fea8e-3c8f-472b-be2c-2cf5325d7939,6,-1.189899033413335,-1.1310933718808966,-0.05880566153243838,0.8525361281028199,scrambled40,35,-0.9113417896352582,7
0083-885b1822-c1b6-423a-9908-c7a6bf181486,1412-204a2171-0b53-49dd-ab21-52964b3cfa71,7,-1.189899033413335,0.32986132137987695,-1.519760354793212,0.8525361281028199,scrambled40,38,-2.372296482896032,8
0083-885b1822-c1b6-423a-9908-c7a6bf181486,1412-204a2171-0b53-49dd-ab21-52964b3cfa71,7,-1.189899033413335,-0.4226833496886751,-0.76721568372466,0.8525361281028199,scrambled40,39,-1.6197518118274798,8
0083-885b1822-c1b6-423a-9908-c7a6bf181486,1412-204a2171-0b53-49dd-ab21-52964b3cfa71,7,-1.189899033413335,0.4338352082315326,-1.6237342416448677,0.8525361281028199,scrambled40,41,-2.4762703697476875,8
0083-885b1822-c1b6-423a-9908-c7a6bf181486,1412-204a2171-0b53-49dd-ab21-52964b3cfa71,7,-1.189899033413335,1.5762497360460446,-2.7661487694593796,0.8525361281028199,scrambled40,44,-3.6186848975621997,8
0108-64e3685a-3c85-4ee3-8116-3fdf8d3c4bfe,8211-f5d05a94-a461-4d20-9d92-bd8eaa82c601,0,0.37201079743186033,0.4280029707673256,-0.055992173335465245,-1.1492151099414445,yoked,0,1.0932229366059794,1
0108-64e3685a-3c85-4ee3-8116-3fdf8d3c4bfe,8211-f5d05a94-a461-4d20-9d92-bd8eaa82c601,0,0.37201079743186033,-0.6075626417635599,0.9795734391954203,-1.1492151099414445,yoked,2,2.128788549136865,1
0108-64e3685a-3c85-4ee3-8116-3fdf8d3c4bfe,8211-f5d05a94-a461-4d20-9d92-bd8eaa82c601,0,-2.6040755820230226,0.3492641000218387,-2.953339682044861,-1.1492151099414445,yoked,3,-1.8041245721034167,1
0108-64e3685a-3c85-4ee3-8116-3fdf8d3c4bfe,8211-f5d05a94-a461-4d20-9d92-bd8eaa82c601,0,0.37201079743186033,2.9391128210127286,-2.567102023580868,-1.1492151099414445,yoked,8,-1.4178869136394237,1
0108-64e3685a-3c85-4ee3-8116-3fdf8d3c4bfe,8211-f5d05a94-a461-4d20-9d92-bd8eaa82c601,1,-2.6040755820230226,2.3653177643696246,-4.969393346392647,-1.1492151099414445,yoked,9,-3.820178236451203,2
0108-64e3685a-3c85-4ee3-8116-3fdf8d3c4bfe,8211-f5d05a94-a461-4d20-9d92-bd8eaa82c601,1,0.37201079743186033,0.7290293398896773,-0.357018542457817,-1.1492151099414445,yoked,10,0.7921965674836275,2
0108-64e3685a-3c85-4ee3-8116-3fdf8d3c4bfe,8211-f5d05a94-a461-4d20-9d92-bd8eaa82c601,1,0.37201079743186033,0.2637115583151635,0.10829923911669681,-1.1492151099414445,yoked,11,1.2575143490581413,2
0108-64e3685a-3c85-4ee3-8116-3fdf8d3c4bfe,8211-f5d05a94-a461-4d20-9d92-bd8eaa82c601,1,0.37201079743186033,-0.8498088527237566,1.2218196501556169,-1.1492151099414445,yoked,12,2.3710347600970616,2
0108-64e3685a-3c85-4ee3-8116-3fdf8d3c4bfe,8211-f5d05a94-a461-4d20-9d92-bd8eaa82c601,2,0.37201079743186033,-0.7235839408858629,1.0955947383177231,-1.1492151099414445,yoked,14,2.244809848259168,3
0108-64e3685a-3c85-4ee3-8116-3fdf8d3c4bfe,8211-f5d05a94-a461-4d20-9d92-bd8eaa82c601,2,0.37201079743186033,0.5140783115922872,-0.1420675141604269,-1.1492151099414445,yoked,15,1.0071475957810176,3
0108-64e3685a-3c85-4ee3-8116-3fdf8d3c4bfe,8211-f5d05a94-a461-4d20-9d92-bd8eaa82c601,2,0.37201079743186033,0.9244670699527223,-0.5524562725208619,-1.1492151099414445,yoked,16,0.5967588374205826,3
0108-64e3685a-3c85-4ee3-8116-3fdf8d3c4bfe,8211-f5d05a94-a461-4d20-9d92-bd8eaa82c601,2,0.37201079743186033,-0.9302212630126233,1.3022320604444837,-1.1492151099414445,yoked,17,2.4514471703859284,3
0108-64e3685a-3c85-4ee3-8116-3fdf8d3c4bfe,8211-f5d05a94-a461-4d20-9d92-bd8eaa82c601,3,0.37201079743186033,0.2490601223202791,0.12295067511158123,-1.1492151099414445,yoked,18,1.2721657850530257,4
0108-64e3685a-3c85-4ee3-8116-3fdf8d3c4bfe,8211-f5d05a94-a461-4d20-9d92-bd8eaa82c601,3,0.37201079743186033,-0.2174658666211388,0.5894766640529991,-1.1492151099414445,yoked,19,1.7386917739944436,4
0108-64e3685a-3c85-4ee3-8116-3fdf8d3c4bfe,8211-f5d05a94-a461-4d20-9d92-bd8eaa82c601,3,0.37201079743186033,1.4426167573645547,-1.0706059599326945,-1.1492151099414445,yoked,20,0.07860915000875002,4
0108-64e3685a-3c85-4ee3-8116-3fdf8d3c4bfe,8211-f5d05a94-a461-4d20-9d92-bd8eaa82c601,3,0.37201079743186033,-0.7269462053797809,1.0989570028116413,-1.1492151099414445,yoked,21,2.248172112753086,4
0108-64e3685a-3c85-4ee3-8116-3fdf8d3c4bfe,8211-f5d05a94-a461-4d20-9d92-bd8eaa82c601,4,0.37201079743186033,-1.032038508376132,1.4040493058079924,-1.1492151099414445,yoked,22,2.553264415749437,5
0108-64e3685a-3c85-4ee3-8116-3fdf8d3c4bfe,8211-f5d05a94-a461-4d20-9d92-bd8eaa82c601,4,-2.6040755820230226,-1.36876766178669,-1.2353079202363326,-1.1492151099414445,yoked,23,-0.08609281029488813,5
0108-64e3685a-3c85-4ee3-8116-3fdf8d3c4bfe,8211-f5d05a94-a461-4d20-9d92-bd8eaa82c601,4,0.37201079743186033,-0.5346288318896558,0.9066396293215162,-1.1492151099414445,yoked,24,2.0558547392629607,5
0108-64e3685a-3c85-4ee3-8116-3fdf8d3c4bfe,8211-f5d05a94-a461-4d20-9d92-bd8eaa82c601,4,0.37201079743186033,-0.242878725219124,0.6148895226509843,-1.1492151099414445,yoked,25,1.7641046325924288,5
0108-64e3685a-3c85-4ee3-8116-3fdf8d3c4bfe,8211-f5d05a94-a461-4d20-9d92-bd8eaa82c601,5,-2.6040755820230226,1.5409861693292177,-4.14506175135224,-1.1492151099414445,yoked,27,-2.995846641410796,6
0108-64e3685a-3c85-4ee3-8116-3fdf8d3c4bfe,8211-f5d05a94-a461-4d20-9d92-bd8eaa82c601,5,0.37201079743186033,-0.9996192840939698,1.3716300815258302,-1.1492151099414445,yoked,28,2.5208451914672745,6
0108-64e3685a-3c85-4ee3-8116-3fdf8d3c4bfe,8211-f5d05a94-a461-4d20-9d92-bd8eaa82c601,5,0.37201079743186033,-0.7118370850631155,1.0838478824949758,-1.1492151099414445,yoked,29,2.2330629924364205,6
0108-64e3685a-3c85-4ee3-8116-3fdf8d3c4bfe,8211-f5d05a94-a461-4d20-9d92-bd8eaa82c601,5,0.37201079743186033,-0.8968213345118017,1.268832131943662,-1.1492151099414445,yoked,30,2.4180472418851062,6
0108-64e3685a-3c85-4ee3-8116-3fdf8d3c4bfe,8211-f5d05a94-a461-4d20-9d92-bd8eaa82c601,6,0.37201079743186033,-0.45819871271468215,0.8302095101465425,-1.1492151099414445,yoked,31,1.979424620087987,7
0108-64e3685a-3c85-4ee3-8116-3fdf8d3c4bfe,8211-f5d05a94-a461-4d20-9d92-bd8eaa82c601,6,0.37201079743186033,0.31525111204469547,0.05675968538716486,-1.1492151099414445,yoked,32,1.2059747953286093,7
0108-64e3685a-3c85-4ee3-8116-3fdf8d3c4bfe,8211-f5d05a94-a461-4d20-9d92-bd8eaa82c601,6,0.37201079743186033,-0.6206617729272138,0.9926725703590742,-1.1492151099414445,yoked,33,2.1418876803005187,7
0108-64e3685a-3c85-4ee3-8116-3fdf8d3c4bfe,8211-f5d05a94-a461-4d20-9d92-bd8eaa82c601,6,0.37201079743186033,-0.6851093920602574,1.0571201894921178,-1.1492151099414445,yoked,34,2.2063352994335625,7
0108-64e3685a-3c85-4ee3-8116-3fdf8d3c4bfe,8211-f5d05a94-a461-4d20-9d92-bd8eaa82c601,7,0.37201079743186033,0.39977457928002635,-0.027763781848166025,-1.1492151099414445,yoked,36,1.1214513280932785,8
0108-64e3685a-3c85-4ee3-8116-3fdf8d3c4bfe,8211-f5d05a94-a461-4d20-9d92-bd8eaa82c601,7,0.37201079743186033,-0.3476269684188487,0.719637765850709,-1.1492151099414445,yoked,41,1.8688528757921534,8
0108-64e3685a-3c85-4ee3-8116-3fdf8d3c4bfe,8211-f5d05a94-a461-4d20-9d92-bd8eaa82c601,7,0.37201079743186033,-0.23090065053828074,0.6029114479701411,-1.1492151099414445,yoked,42,1.7521265579115854,8
0108-64e3685a-3c85-4ee3-8116-3fdf8d3c4bfe,8211-f5d05a94-a461-4d20-9d92-bd8eaa82c601,7,0.37201079743186033,-0.27599497827375924,0.6480057757056196,-1.1492151099414445,yoked,43,1.797220885647064,8
0130-40464c88-2dc5-4cda-b0d7-0612c6ad5469,0130-40464c88-2dc5-4cda-b0d7-0612c6ad5469,0,0.5208154264029438,3.44195381112713,-2.9211383847241863,-0.6635572322708142,refgame,1,-2.257581152453372,1
0130-40464c88-2dc5-4cda-b0d7-0612c6ad5469,0130-40464c88-2dc5-4cda-b0d7-0612c6ad5469,0,0.5208154264029438,0.40080575122497064,0.12000967517797312,-0.6635572322708142,refgame,5,0.7835669074487873,1
0130-40464c88-2dc5-4cda-b0d7-0612c6ad5469,0130-40464c88-2dc5-4cda-b0d7-0612c6ad5469,0,0.5208154264029438,0.34961073235496504,0.17120469404797872,-0.6635572322708142,refgame,6,0.8347619263187929,1
0130-40464c88-2dc5-4cda-b0d7-0612c6ad5469,0130-40464c88-2dc5-4cda-b0d7-0612c6ad5469,0,0.5208154264029438,0.545120339987966,-0.024304913585022292,-0.6635572322708142,refgame,7,0.6392523186857919,1
0130-40464c88-2dc5-4cda-b0d7-0612c6ad5469,0130-40464c88-2dc5-4cda-b0d7-0612c6ad5469,1,0.5208154264029438,0.29142392008811263,0.22939150631483113,-0.6635572322708142,refgame,9,0.8929487385856454,2
0130-40464c88-2dc5-4cda-b0d7-0612c6ad5469,0130-40464c88-2dc5-4cda-b0d7-0612c6ad5469,1,-1.8600550942962275,0.6305619527968381,-2.4906170470930658,-0.6635572322708142,refgame,10,-1.8270598148222517,2
0130-40464c88-2dc5-4cda-b0d7-0612c6ad5469,0130-40464c88-2dc5-4cda-b0d7-0612c6ad5469,1,0.5208154264029438,0.1969498572110506,0.32386556919189313,-0.6635572322708142,refgame,11,0.9874228014627073,2
0130-40464c88-2dc5-4cda-b0d7-0612c6ad5469,0130-40464c88-2dc5-4cda-b0d7-0612c6ad5469,1,0.5208154264029438,0.04905116710150907,0.4717642593014347,-0.6635572322708142,refgame,12,1.135321491572249,2
0130-40464c88-2dc5-4cda-b0d7-0612c6ad5469,0130-40464c88-2dc5-4cda-b0d7-0612c6ad5469,2,-1.8600550942962275,0.7318274453310408,-2.5918825396272682,-0.6635572322708142,refgame,13,-1.9283253073564541,3
0130-40464c88-2dc5-4cda-b0d7-0612c6ad5469,0130-40464c88-2dc5-4cda-b0d7-0612c6ad5469,2,0.5208154264029438,-0.1300367821268204,0.6508522085297641,-0.6635572322708142,refgame,14,1.3144094408005782,3
0130-40464c88-2dc5-4cda-b0d7-0612c6ad5469,0130-40464c88-2dc5-4cda-b0d7-0612c6ad5469,2,-1.8600550942962275,-0.6302348930827572,-1.2298202012134705,-0.6635572322708142,refgame,15,-0.5662629689426563,3
0130-40464c88-2dc5-4cda-b0d7-0612c6ad5469,0130-40464c88-2dc5-4cda-b0d7-0612c6ad5469,2,0.5208154264029438,0.2951097986109786,0.22570562779196518,-0.6635572322708142,refgame,16,0.8892628600627794,3
0130-40464c88-2dc5-4cda-b0d7-0612c6ad5469,0130-40464c88-2dc5-4cda-b0d7-0612c6ad5469,3,0.5208154264029438,0.2044629156798665,0.31635251072307724,-0.6635572322708142,refgame,17,0.9799097429938914,4
0130-40464c88-2dc5-4cda-b0d7-0612c6ad5469,0130-40464c88-2dc5-4cda-b0d7-0612c6ad5469,3,-1.8600550942962275,1.5190992640341308,-3.379154358330358,-0.6635572322708142,refgame,18,-2.715597126059544,4
0130-40464c88-2dc5-4cda-b0d7-0612c6ad5469,0130-40464c88-2dc5-4cda-b0d7-0612c6ad5469,3,-1.8600550942962275,-1.0268071580237381,-0.8332479362724894,-0.6635572322708142,refgame,19,-0.16969070400167519,4
0130-40464c88-2dc5-4cda-b0d7-0612c6ad5469,0130-40464c88-2dc5-4cda-b0d7-0612c6ad5469,3,0.5208154264029438,-0.47622458191244826,0.9970400083153921,-0.6635572322708142,refgame,20,1.6605972405862062,4
0130-40464c88-2dc5-4cda-b0d7-0612c6ad5469,0130-40464c88-2dc5-4cda-b0d7-0612c6ad5469,4,0.5208154264029438,-0.29823743963155214,0.8190528660344959,-0.6635572322708142,refgame,21,1.48261009830531,5
0130-40464c88-2dc5-4cda-b0d7-0612c6ad5469,0130-40464c88-2dc5-4cda-b0d7-0612c6ad5469,4,0.5208154264029438,1.5867053851795632,-1.0658899587766193,-0.6635572322708142,refgame,22,-0.4023327265058051,5
0130-40464c88-2dc5-4cda-b0d7-0612c6ad5469,0130-40464c88-2dc5-4cda-b0d7-0612c6ad5469,4,0.5208154264029438,-0.21315613791764193,0.7339715643205857,-0.6635572322708142,refgame,23,1.3975287965913998,5
0130-40464c88-2dc5-4cda-b0d7-0612c6ad5469,0130-40464c88-2dc5-4cda-b0d7-0612c6ad5469,4,0.5208154264029438,0.3272429130120812,0.19357251339086257,-0.6635572322708142,refgame,24,0.8571297456616768,5
0130-40464c88-2dc5-4cda-b0d7-0612c6ad5469,0130-40464c88-2dc5-4cda-b0d7-0612c6ad5469,5,0.5208154264029438,0.5512420098108427,-0.030426583407898944,-0.6635572322708142,refgame,25,0.6331306488629153,6
0130-40464c88-2dc5-4cda-b0d7-0612c6ad5469,0130-40464c88-2dc5-4cda-b0d7-0612c6ad5469,5,0.5208154264029438,-1.5747242042967824,2.0955396306997263,-0.6635572322708142,refgame,26,2.7590968629705404,6
0130-40464c88-2dc5-4cda-b0d7-0612c6ad5469,0130-40464c88-2dc5-4cda-b0d7-0612c6ad5469,5,0.5208154264029438,-1.6751031442031195,2.195918570606063,-0.6635572322708142,refgame,27,2.859475802876877,6
0130-40464c88-2dc5-4cda-b0d7-0612c6ad5469,0130-40464c88-2dc5-4cda-b0d7-0612c6ad5469,5,0.5208154264029438,-0.561123516618671,1.0819389430216146,-0.6635572322708142,refgame,28,1.7454961752924287,6
0130-40464c88-2dc5-4cda-b0d7-0612c6ad5469,0130-40464c88-2dc5-4cda-b0d7-0612c6ad5469,6,-1.8600550942962275,-0.8898255080516465,-0.970229586244581,-0.6635572322708142,refgame,29,-0.3066723539737668,7
0130-40464c88-2dc5-4cda-b0d7-0612c6ad5469,0130-40464c88-2dc5-4cda-b0d7-0612c6ad5469,6,0.5208154264029438,-0.22492726342334818,0.745742689826292,-0.6635572322708142,refgame,30,1.409299922097106,7
0130-40464c88-2dc5-4cda-b0d7-0612c6ad5469,0130-40464c88-2dc5-4cda-b0d7-0612c6ad5469,6,0.5208154264029438,-0.30187999132404997,0.8226954177269937,-0.6635572322708142,refgame,31,1.486252649997808,7
0130-40464c88-2dc5-4cda-b0d7-0612c6ad5469,0130-40464c88-2dc5-4cda-b0d7-0612c6ad5469,6,0.5208154264029438,0.039838805502620984,0.4809766209003228,-0.6635572322708142,refgame,32,1.1445338531711369,7
0130-40464c88-2dc5-4cda-b0d7-0612c6ad5469,0130-40464c88-2dc5-4cda-b0d7-0612c6ad5469,7,0.5208154264029438,-1.5289804755799998,2.0497959019829435,-0.6635572322708142,refgame,35,2.7133531342537576,8
0130-40464c88-2dc5-4cda-b0d7-0612c6ad5469,0130-40464c88-2dc5-4cda-b0d7-0612c6ad5469,7,0.5208154264029438,-0.15320810112245672,0.6740235275254005,-0.6635572322708142,refgame,36,1.3375807597962148,8
0130-40464c88-2dc5-4cda-b0d7-0612c6ad5469,0130-40464c88-2dc5-4cda-b0d7-0612c6ad5469,7,-1.8600550942962275,-1.1454180703136603,-0.7146370239825672,-0.6635572322708142,refgame,37,-0.05107979171175303,8
0130-40464c88-2dc5-4cda-b0d7-0612c6ad5469,0130-40464c88-2dc5-4cda-b0d7-0612c6ad5469,7,0.5208154264029438,-0.331118801425278,0.8519342278282218,-0.6635572322708142,refgame,40,1.5154914600990361,8
0177-bec78ac0-eb3e-477d-a2e2-44d27d49eacd,3715-9ea94ac4-b510-4b01-b110-6cfa41f6bc68,0,0.5208154264029438,1.2867525514071103,-0.7659371250041666,-0.4896966888697607,yoked,0,-0.27624043613440585,1
0177-bec78ac0-eb3e-477d-a2e2-44d27d49eacd,3715-9ea94ac4-b510-4b01-b110-6cfa41f6bc68,0,-1.8600550942962275,0.9527959202321898,-2.8128510145284173,-0.4896966888697607,yoked,4,-2.3231543256586566,1
0177-bec78ac0-eb3e-477d-a2e2-44d27d49eacd,3715-9ea94ac4-b510-4b01-b110-6cfa41f6bc68,0,0.5208154264029438,-0.3880242013481336,0.9088396277510773,-0.4896966888697607,yoked,6,1.398536316620838,1
0177-bec78ac0-eb3e-477d-a2e2-44d27d49eacd,3715-9ea94ac4-b510-4b01-b110-6cfa41f6bc68,0,0.5208154264029438,-0.1903463298995267,0.7111617563024705,-0.4896966888697607,yoked,7,1.2008584451722313,1
0177-bec78ac0-eb3e-477d-a2e2-44d27d49eacd,3715-9ea94ac4-b510-4b01-b110-6cfa41f6bc68,1,-1.8600550942962275,1.1181564570004747,-2.9782115512967025,-0.4896966888697607,yoked,9,-2.4885148624269418,2
0177-bec78ac0-eb3e-477d-a2e2-44d27d49eacd,3715-9ea94ac4-b510-4b01-b110-6cfa41f6bc68,1,0.5208154264029438,-0.4580614584466565,0.9788768848496003,-0.4896966888697607,yoked,10,1.468573573719361,2
0177-bec78ac0-eb3e-477d-a2e2-44d27d49eacd,3715-9ea94ac4-b510-4b01-b110-6cfa41f6bc68,1,0.5208154264029438,1.000470330802311,-0.4796549043993673,-0.4896966888697607,yoked,11,0.010041784470393389,2
0177-bec78ac0-eb3e-477d-a2e2-44d27d49eacd,3715-9ea94ac4-b510-4b01-b110-6cfa41f6bc68,1,0.5208154264029438,0.006066310473624073,0.5147491159293197,-0.4896966888697607,yoked,12,1.0044458047990803,2
0177-bec78ac0-eb3e-477d-a2e2-44d27d49eacd,3715-9ea94ac4-b510-4b01-b110-6cfa41f6bc68,2,0.5208154264029438,-0.8551659828648237,1.3759814092677676,-0.4896966888697607,yoked,13,1.8656780981375283,3
0177-bec78ac0-eb3e-477d-a2e2-44d27d49eacd,3715-9ea94ac4-b510-4b01-b110-6cfa41f6bc68,2,-1.8600550942962275,0.5390886892656354,-2.399143783561863,-0.4896966888697607,yoked,15,-1.9094470946921023,3
0177-bec78ac0-eb3e-477d-a2e2-44d27d49eacd,3715-9ea94ac4-b510-4b01-b110-6cfa41f6bc68,2,0.5208154264029438,-0.3859219365483184,0.9067373629512622,-0.4896966888697607,yoked,16,1.3964340518210228,3
0177-bec78ac0-eb3e-477d-a2e2-44d27d49eacd,3715-9ea94ac4-b510-4b01-b110-6cfa41f6bc68,2,0.5208154264029438,0.07275351590630717,0.4480619104966366,-0.4896966888697607,yoked,17,0.9377585993663973,3
0177-bec78ac0-eb3e-477d-a2e2-44d27d49eacd,3715-9ea94ac4-b510-4b01-b110-6cfa41f6bc68,3,0.5208154264029438,-1.3867333805941537,1.9075488069970974,-0.4896966888697607,yoked,18,2.397245495866858,4
0177-bec78ac0-eb3e-477d-a2e2-44d27d49eacd,3715-9ea94ac4-b510-4b01-b110-6cfa41f6bc68,3,0.5208154264029438,0.33443869487231426,0.1863767315306295,-0.4896966888697607,yoked,19,0.6760734204003902,4
0177-bec78ac0-eb3e-477d-a2e2-44d27d49eacd,3715-9ea94ac4-b510-4b01-b110-6cfa41f6bc68,3,0.5208154264029438,0.8797642484814033,-0.3589488220784596,-0.4896966888697607,yoked,21,0.13074786679130113,4
0177-bec78ac0-eb3e-477d-a2e2-44d27d49eacd,3715-9ea94ac4-b510-4b01-b110-6cfa41f6bc68,3,0.5208154264029438,1.177048281609631,-0.6562328552066873,-0.4896966888697607,yoked,22,-0.16653616633692658,4
0177-bec78ac0-eb3e-477d-a2e2-44d27d49eacd,3715-9ea94ac4-b510-4b01-b110-6cfa41f6bc68,4,0.5208154264029438,-1.2681807915274097,1.7889962179303533,-0.4896966888697607,yoked,23,2.278692906800114,5
0177-bec78ac0-eb3e-477d-a2e2-44d27d49eacd,3715-9ea94ac4-b510-4b01-b110-6cfa41f6bc68,4,-1.8600550942962275,-0.9199424697105164,-0.9401126245857111,-0.4896966888697607,yoked,24,-0.4504159357159504,5
0177-bec78ac0-eb3e-477d-a2e2-44d27d49eacd,3715-9ea94ac4-b510-4b01-b110-6cfa41f6bc68,4,0.5208154264029438,1.3431005369763114,-0.8222851105733676,-0.4896966888697607,yoked,25,-0.3325884217036069,5
0177-bec78ac0-eb3e-477d-a2e2-44d27d49eacd,3715-9ea94ac4-b510-4b01-b110-6cfa41f6bc68,4,0.5208154264029438,-0.40277280235828555,0.9235882287612294,-0.4896966888697607,yoked,26,1.41328491763099,5
0177-bec78ac0-eb3e-477d-a2e2-44d27d49eacd,3715-9ea94ac4-b510-4b01-b110-6cfa41f6bc68,5,0.5208154264029438,-1.4907852833863986,2.0116007097893425,-0.4896966888697607,yoked,27,2.501297398659103,6
0177-bec78ac0-eb3e-477d-a2e2-44d27d49eacd,3715-9ea94ac4-b510-4b01-b110-6cfa41f6bc68,5,-1.8600550942962275,-0.08503932032424773,-1.7750157739719798,-0.4896966888697607,yoked,29,-1.2853190851022191,6
0177-bec78ac0-eb3e-477d-a2e2-44d27d49eacd,3715-9ea94ac4-b510-4b01-b110-6cfa41f6bc68,5,0.5208154264029438,-0.5239645491967353,1.044779975599679,-0.4896966888697607,yoked,30,1.5344766644694396,6
0177-bec78ac0-eb3e-477d-a2e2-44d27d49eacd,3715-9ea94ac4-b510-4b01-b110-6cfa41f6bc68,5,-1.8600550942962275,1.0954785081573986,-2.955533602453626,-0.4896966888697607,yoked,31,-2.4658369135838654,6
0177-bec78ac0-eb3e-477d-a2e2-44d27d49eacd,3715-9ea94ac4-b510-4b01-b110-6cfa41f6bc68,6,0.5208154264029438,0.2633948575343927,0.2574205688685511,-0.4896966888697607,yoked,32,0.7471172577383118,7
0177-bec78ac0-eb3e-477d-a2e2-44d27d49eacd,3715-9ea94ac4-b510-4b01-b110-6cfa41f6bc68,6,-1.8600550942962275,1.8192648362233965,-3.679319930519624,-0.4896966888697607,yoked,33,-3.1896232416498633,7
0177-bec78ac0-eb3e-477d-a2e2-44d27d49eacd,3715-9ea94ac4-b510-4b01-b110-6cfa41f6bc68,6,0.5208154264029438,-0.20835269421474648,0.7291681206176902,-0.4896966888697607,yoked,34,1.2188648094874508,7
0177-bec78ac0-eb3e-477d-a2e2-44d27d49eacd,3715-9ea94ac4-b510-4b01-b110-6cfa41f6bc68,6,0.5208154264029438,-1.7272873449854353,2.248102771388379,-0.4896966888697607,yoked,35,2.73779946025814,7
0177-bec78ac0-eb3e-477d-a2e2-44d27d49eacd,3715-9ea94ac4-b510-4b01-b110-6cfa41f6bc68,7,0.5208154264029438,0.8962820690682125,-0.37546664266526875,-0.4896966888697607,yoked,36,0.11423004620449195,8
0177-bec78ac0-eb3e-477d-a2e2-44d27d49eacd,3715-9ea94ac4-b510-4b01-b110-6cfa41f6bc68,7,0.5208154264029438,0.584098023369281,-0.0632825969663372,-0.4896966888697607,yoked,38,0.4264140919034235,8
0177-bec78ac0-eb3e-477d-a2e2-44d27d49eacd,3715-9ea94ac4-b510-4b01-b110-6cfa41f6bc68,7,0.5208154264029438,-1.4935994923567988,2.0144149187597424,-0.4896966888697607,yoked,39,2.504111607629503,8
0177-bec78ac0-eb3e-477d-a2e2-44d27d49eacd,3715-9ea94ac4-b510-4b01-b110-6cfa41f6bc68,7,0.5208154264029438,-1.584775793617797,2.1055912200207407,-0.4896966888697607,yoked,42,2.5952879088905014,8
0212-252078ac-feea-4c9c-ab21-d9ef98bdf60d,8785-1369eab7-492d-453a-9260-2eede2e2c5fd,0,-1.459877032072226,2.3056919818900434,-3.7655690139622697,-1.6520026719754974,scrambled40,3,-2.1135663419867723,1
0212-252078ac-feea-4c9c-ab21-d9ef98bdf60d,8785-1369eab7-492d-453a-9260-2eede2e2c5fd,0,-1.459877032072226,1.5181665953698824,-2.9780436274421085,-1.6520026719754974,scrambled40,4,-1.326040955466611,1
0212-252078ac-feea-4c9c-ab21-d9ef98bdf60d,8785-1369eab7-492d-453a-9260-2eede2e2c5fd,0,0.6635804691237391,0.9138244227741692,-0.25024395365043006,-1.6520026719754974,scrambled40,5,1.4017587183250675,1
0212-252078ac-feea-4c9c-ab21-d9ef98bdf60d,8785-1369eab7-492d-453a-9260-2eede2e2c5fd,0,0.6635804691237391,0.27773456197091495,0.3858459071528242,-1.6520026719754974,scrambled40,8,2.0378485791283216,1
0212-252078ac-feea-4c9c-ab21-d9ef98bdf60d,4624-1c4fea8e-3c8f-472b-be2c-2cf5325d7939,1,-1.459877032072226,1.9606378412163141,-3.42051487328854,-1.6520026719754974,scrambled40,9,-1.7685122013130425,2
0212-252078ac-feea-4c9c-ab21-d9ef98bdf60d,4624-1c4fea8e-3c8f-472b-be2c-2cf5325d7939,1,0.6635804691237391,-0.2722251181654556,0.9358055872891947,-1.6520026719754974,scrambled40,10,2.5878082592646923,2
0212-252078ac-feea-4c9c-ab21-d9ef98bdf60d,4624-1c4fea8e-3c8f-472b-be2c-2cf5325d7939,1,0.6635804691237391,-0.4506883331935558,1.1142688023172949,-1.6520026719754974,scrambled40,11,2.7662714742927923,2
0212-252078ac-feea-4c9c-ab21-d9ef98bdf60d,4624-1c4fea8e-3c8f-472b-be2c-2cf5325d7939,1,0.6635804691237391,-0.6441384566862057,1.3077189258099449,-1.6520026719754974,scrambled40,12,2.9597215977854425,2
0212-252078ac-feea-4c9c-ab21-d9ef98bdf60d,1412-204a2171-0b53-49dd-ab21-52964b3cfa71,2,0.6635804691237391,-0.4165242705182732,1.0801047396420123,-1.6520026719754974,scrambled40,14,2.73210741161751,3
0212-252078ac-feea-4c9c-ab21-d9ef98bdf60d,1412-204a2171-0b53-49dd-ab21-52964b3cfa71,2,0.6635804691237391,-0.8290426702480044,1.4926231393717435,-1.6520026719754974,scrambled40,15,3.144625811347241,3
0212-252078ac-feea-4c9c-ab21-d9ef98bdf60d,1412-204a2171-0b53-49dd-ab21-52964b3cfa71,2,-1.459877032072226,-0.8789958238466515,-0.5808812082255745,-1.6520026719754974,scrambled40,16,1.071121463749923,3
0212-252078ac-feea-4c9c-ab21-d9ef98bdf60d,1412-204a2171-0b53-49dd-ab21-52964b3cfa71,2,0.6635804691237391,-0.1406274980830564,0.8042079672067955,-1.6520026719754974,scrambled40,17,2.456210639182293,3
0212-252078ac-feea-4c9c-ab21-d9ef98bdf60d,6872-628d5dc4-0694-4035-8076-a1254e999c1d,3,0.6635804691237391,-0.2989069602002392,0.9624874293239783,-1.6520026719754974,scrambled40,18,2.614490101299476,4
0212-252078ac-feea-4c9c-ab21-d9ef98bdf60d,6872-628d5dc4-0694-4035-8076-a1254e999c1d,3,-1.459877032072226,1.4220764581688516,-2.8819534902410777,-1.6520026719754974,scrambled40,19,-1.2299508182655803,4
0212-252078ac-feea-4c9c-ab21-d9ef98bdf60d,6872-628d5dc4-0694-4035-8076-a1254e999c1d,3,0.6635804691237391,-0.8432422257369265,1.5068226948606656,-1.6520026719754974,scrambled40,20,3.158825366836163,4
0212-252078ac-feea-4c9c-ab21-d9ef98bdf60d,6872-628d5dc4-0694-4035-8076-a1254e999c1d,3,0.6635804691237391,-0.4557782260520443,1.1193586951757835,-1.6520026719754974,scrambled40,22,2.7713613671512807,4
0212-252078ac-feea-4c9c-ab21-d9ef98bdf60d,5535-af4e7c1c-b29d-4130-b236-7c050622d17e,4,-1.459877032072226,1.3786732800972565,-2.838550312169483,-1.6520026719754974,scrambled40,23,-1.1865476401939854,5
0212-252078ac-feea-4c9c-ab21-d9ef98bdf60d,5535-af4e7c1c-b29d-4130-b236-7c050622d17e,4,0.6635804691237391,-0.9501530496938566,1.6137335188175959,-1.6520026719754974,scrambled40,24,3.2657361907930933,5
0212-252078ac-feea-4c9c-ab21-d9ef98bdf60d,5535-af4e7c1c-b29d-4130-b236-7c050622d17e,4,-1.459877032072226,2.281937090433812,-3.741814122506038,-1.6520026719754974,scrambled40,25,-2.0898114505305405,5
0212-252078ac-feea-4c9c-ab21-d9ef98bdf60d,5535-af4e7c1c-b29d-4130-b236-7c050622d17e,4,-1.459877032072226,0.042948155074847096,-1.5028251871470732,-1.6520026719754974,scrambled40,26,0.1491774848284242,5
0212-252078ac-feea-4c9c-ab21-d9ef98bdf60d,7341-3634e0b6-be5a-407f-bcd4-183cb00620a7,5,0.6635804691237391,-0.00148980880879862,0.6650702779325377,-1.6520026719754974,scrambled40,27,2.3170729499080354,6
0212-252078ac-feea-4c9c-ab21-d9ef98bdf60d,7341-3634e0b6-be5a-407f-bcd4-183cb00620a7,5,0.6635804691237391,0.14413140818119496,0.5194490609425442,-1.6520026719754974,scrambled40,28,2.1714517329180416,6
0212-252078ac-feea-4c9c-ab21-d9ef98bdf60d,7341-3634e0b6-be5a-407f-bcd4-183cb00620a7,5,0.6635804691237391,-0.5894654660021759,1.2530459351259151,-1.6520026719754974,scrambled40,29,2.9050486071014125,6
0212-252078ac-feea-4c9c-ab21-d9ef98bdf60d,7341-3634e0b6-be5a-407f-bcd4-183cb00620a7,5,0.6635804691237391,-0.6630050878285083,1.3265855569522476,-1.6520026719754974,scrambled40,30,2.978588228927745,6
0212-252078ac-feea-4c9c-ab21-d9ef98bdf60d,5947-794501d9-b90d-4151-a7c9-149c399c5df3,6,0.6635804691237391,-1.0893293595862061,1.7529098287099454,-1.6520026719754974,scrambled40,31,3.404912500685443,7
0212-252078ac-feea-4c9c-ab21-d9ef98bdf60d,5947-794501d9-b90d-4151-a7c9-149c399c5df3,6,-1.459877032072226,-0.6846925232820896,-0.7751845087901365,-1.6520026719754974,scrambled40,32,0.876818163185361,7
0212-252078ac-feea-4c9c-ab21-d9ef98bdf60d,5947-794501d9-b90d-4151-a7c9-149c399c5df3,6,0.6635804691237391,-0.6240366977538793,1.2876171668776184,-1.6520026719754974,scrambled40,33,2.939619838853116,7
0212-252078ac-feea-4c9c-ab21-d9ef98bdf60d,5947-794501d9-b90d-4151-a7c9-149c399c5df3,6,0.6635804691237391,0.24871491000312534,0.4148655591206138,-1.6520026719754974,scrambled40,34,2.066868231096111,7
0212-252078ac-feea-4c9c-ab21-d9ef98bdf60d,5604-bea38fc3-1848-4767-93bf-6c725acd45fe,7,0.6635804691237391,-1.0123208500794751,1.6759013192032142,-1.6520026719754974,scrambled40,36,3.3279039911787116,8
0212-252078ac-feea-4c9c-ab21-d9ef98bdf60d,5604-bea38fc3-1848-4767-93bf-6c725acd45fe,7,0.6635804691237391,-0.6280478020233844,1.2916282711471236,-1.6520026719754974,scrambled40,38,2.943630943122621,8
0212-252078ac-feea-4c9c-ab21-d9ef98bdf60d,5604-bea38fc3-1848-4767-93bf-6c725acd45fe,7,-1.459877032072226,-0.07607191563938805,-1.383805116432838,-1.6520026719754974,scrambled40,40,0.26819755554265945,8
0212-252078ac-feea-4c9c-ab21-d9ef98bdf60d,5604-bea38fc3-1848-4767-93bf-6c725acd45fe,7,0.6635804691237391,-0.9457545617521996,1.6093350308759389,-1.6520026719754974,scrambled40,43,3.2613377028514363,8
0244-306077e7-9d17-47bf-88b6-139d1a213d53,6685-cf95f41e-1794-4f0f-9a60-f2e40a39bb9e,0,-2.287186402313343,-0.2261300591237777,-2.061056343189565,-0.8548437169278849,scrambled40,1,-1.2062126262616801,1
0244-306077e7-9d17-47bf-88b6-139d1a213d53,6685-cf95f41e-1794-4f0f-9a60-f2e40a39bb9e,0,0.4235530374654338,-1.6339598224524157,2.0575128599178494,-0.8548437169278849,scrambled40,4,2.9123565768457342,1
0244-306077e7-9d17-47bf-88b6-139d1a213d53,6685-cf95f41e-1794-4f0f-9a60-f2e40a39bb9e,0,-2.287186402313343,0.6771709582920615,-2.9643573606054043,-0.8548437169278849,scrambled40,5,-2.1095136436775195,1
0244-306077e7-9d17-47bf-88b6-139d1a213d53,6685-cf95f41e-1794-4f0f-9a60-f2e40a39bb9e,0,0.4235530374654338,0.8750270612998508,-0.4514740238344169,-0.8548437169278849,scrambled40,8,0.40336969309346793,1
0244-306077e7-9d17-47bf-88b6-139d1a213d53,3394-f5980536-c29c-4491-9053-429b17112aa2,1,0.4235530374654338,-0.07784384658187297,0.5013968840473068,-0.8548437169278849,scrambled40,9,1.3562406009751915,2
0244-306077e7-9d17-47bf-88b6-139d1a213d53,3394-f5980536-c29c-4491-9053-429b17112aa2,1,0.4235530374654338,-0.8159713607834372,1.239524398248871,-0.8548437169278849,scrambled40,11,2.094368115176756,2
0244-306077e7-9d17-47bf-88b6-139d1a213d53,3394-f5980536-c29c-4491-9053-429b17112aa2,1,0.4235530374654338,-1.1297532765094354,1.5533063139748693,-0.8548437169278849,scrambled40,12,2.408150030902754,2
0244-306077e7-9d17-47bf-88b6-139d1a213d53,3394-f5980536-c29c-4491-9053-429b17112aa2,1,0.4235530374654338,-0.893817487436138,1.317370524901572,-0.8548437169278849,scrambled40,13,2.1722142418294568,2
0244-306077e7-9d17-47bf-88b6-139d1a213d53,2048-56d87216-b5ac-4711-a115-2507fea530bc,2,0.4235530374654338,0.9348723910867611,-0.5113193536213273,-0.8548437169278849,scrambled40,14,0.34352436330655756,3
0244-306077e7-9d17-47bf-88b6-139d1a213d53,2048-56d87216-b5ac-4711-a115-2507fea530bc,2,0.4235530374654338,-0.455047757678659,0.8786007951440928,-0.8548437169278849,scrambled40,15,1.7334445120719777,3
0244-306077e7-9d17-47bf-88b6-139d1a213d53,2048-56d87216-b5ac-4711-a115-2507fea530bc,2,0.4235530374654338,-1.5299603611318877,1.9535133985973214,-0.8548437169278849,scrambled40,16,2.8083571155252063,3
0244-306077e7-9d17-47bf-88b6-139d1a213d53,2048-56d87216-b5ac-4711-a115-2507fea530bc,2,-2.287186402313343,1.8617245837019287,-4.148910986015272,-0.8548437169278849,scrambled40,17,-3.294067269087387,3
0244-306077e7-9d17-47bf-88b6-139d1a213d53,2703-3dbc1968-0c3d-4837-89cf-021613fd60a4,3,-2.287186402313343,2.2523813789341283,-4.539567781247471,-0.8548437169278849,scrambled40,18,-3.684724064319586,4
0244-306077e7-9d17-47bf-88b6-139d1a213d53,2703-3dbc1968-0c3d-4837-89cf-021613fd60a4,3,0.4235530374654338,-0.3097433950007291,0.7332964324661629,-0.8548437169278849,scrambled40,19,1.588140149394048,4
0244-306077e7-9d17-47bf-88b6-139d1a213d53,2703-3dbc1968-0c3d-4837-89cf-021613fd60a4,3,0.4235530374654338,0.012252489589843468,0.41130054787559034,-0.8548437169278849,scrambled40,20,1.2661442648034753,4
0244-306077e7-9d17-47bf-88b6-139d1a213d53,2703-3dbc1968-0c3d-4837-89cf-021613fd60a4,3,-2.287186402313343,0.7322243100252321,-3.019410712338575,-0.8548437169278849,scrambled40,21,-2.16456699541069,4
0244-306077e7-9d17-47bf-88b6-139d1a213d53,8211-f5d05a94-a461-4d20-9d92-bd8eaa82c601,4,0.4235530374654338,0.617227145958354,-0.19367410849292022,-0.8548437169278849,scrambled40,22,0.6611696084349646,5
0244-306077e7-9d17-47bf-88b6-139d1a213d53,8211-f5d05a94-a461-4d20-9d92-bd8eaa82c601,4,0.4235530374654338,1.7720434862041856,-1.348490448738752,-0.8548437169278849,scrambled40,24,-0.49364673181086705,5
0244-306077e7-9d17-47bf-88b6-139d1a213d53,8211-f5d05a94-a461-4d20-9d92-bd8eaa82c601,4,0.4235530374654338,1.0138518770596274,-0.5902988395941936,-0.8548437169278849,scrambled40,25,0.26454487733369125,5
0244-306077e7-9d17-47bf-88b6-139d1a213d53,8211-f5d05a94-a461-4d20-9d92-bd8eaa82c601,4,0.4235530374654338,-1.0161789129174403,1.4397319503828743,-0.8548437169278849,scrambled40,26,2.294575667310759,5
0244-306077e7-9d17-47bf-88b6-139d1a213d53,3798-bf431c37-2433-4fe3-91cb-bc0279866dff,5,0.4235530374654338,-0.054285472475681204,0.47783850994111504,-0.8548437169278849,scrambled40,27,1.332682226869,6
0244-306077e7-9d17-47bf-88b6-139d1a213d53,3798-bf431c37-2433-4fe3-91cb-bc0279866dff,5,0.4235530374654338,-0.5736670640413593,0.9972201015067931,-0.8548437169278849,scrambled40,28,1.852063818434678,6
0244-306077e7-9d17-47bf-88b6-139d1a213d53,3798-bf431c37-2433-4fe3-91cb-bc0279866dff,5,0.4235530374654338,-1.3511258627590068,1.7746789002244405,-0.8548437169278849,scrambled40,29,2.6295226171523254,6
0244-306077e7-9d17-47bf-88b6-139d1a213d53,3798-bf431c37-2433-4fe3-91cb-bc0279866dff,5,0.4235530374654338,-0.3193563497067474,0.7429093871721812,-0.8548437169278849,scrambled40,30,1.597753104100066,6
0244-306077e7-9d17-47bf-88b6-139d1a213d53,0055-b8f4d6a3-ff78-4051-bd88-0fb01a2f5764,6,0.4235530374654338,-0.5774413814003226,1.0009944188657565,-0.8548437169278849,scrambled40,31,1.8558381357936413,7
0244-306077e7-9d17-47bf-88b6-139d1a213d53,0055-b8f4d6a3-ff78-4051-bd88-0fb01a2f5764,6,0.4235530374654338,0.7591018173788319,-0.33554877991339804,-0.8548437169278849,scrambled40,33,0.5192949370144868,7
0244-306077e7-9d17-47bf-88b6-139d1a213d53,0055-b8f4d6a3-ff78-4051-bd88-0fb01a2f5764,6,0.4235530374654338,-0.6547861700167645,1.0783392074821982,-0.8548437169278849,scrambled40,34,1.933182924410083,7
0244-306077e7-9d17-47bf-88b6-139d1a213d53,0055-b8f4d6a3-ff78-4051-bd88-0fb01a2f5764,6,0.4235530374654338,-0.49904682013804313,0.922599857603477,-0.8548437169278849,scrambled40,35,1.777443574531362,7
0244-306077e7-9d17-47bf-88b6-139d1a213d53,1805-7380a363-46e2-4996-8f66-8207251945a4,7,0.4235530374654338,0.4258688751458956,-0.0023158376804617853,-0.8548437169278849,scrambled40,37,0.8525278792474231,8
0244-306077e7-9d17-47bf-88b6-139d1a213d53,1805-7380a363-46e2-4996-8f66-8207251945a4,7,0.4235530374654338,1.1523484197760694,-0.7287953823106356,-0.8548437169278849,scrambled40,40,0.1260483346172493,8
0244-306077e7-9d17-47bf-88b6-139d1a213d53,1805-7380a363-46e2-4996-8f66-8207251945a4,7,0.4235530374654338,-0.8762492495443944,1.2998022870098282,-0.8548437169278849,scrambled40,42,2.154646003937713,8
0244-306077e7-9d17-47bf-88b6-139d1a213d53,1805-7380a363-46e2-4996-8f66-8207251945a4,7,0.4235530374654338,-0.0917301447547267,0.5152831822201606,-0.8548437169278849,scrambled40,43,1.3701268991480453,8
0280-77b5fb73-05fc-42d5-ac33-4a2475a75466,7741-1061961c-2778-483e-97de-15fc47b71ca5,0,-1.3599353488675896,0.3615232535139801,-1.7214586023815697,-1.0307931749994061,yoked,2,-0.6906654273821635,1
0280-77b5fb73-05fc-42d5-ac33-4a2475a75466,7741-1061961c-2778-483e-97de-15fc47b71ca5,0,-1.3599353488675896,2.6122429351825334,-3.972178284050123,-1.0307931749994061,yoked,3,-2.941385109050717,1
0280-77b5fb73-05fc-42d5-ac33-4a2475a75466,7741-1061961c-2778-483e-97de-15fc47b71ca5,0,0.7123470875020708,0.5700861957974781,0.14226089170459266,-1.0307931749994061,yoked,6,1.1730540667039988,1
0280-77b5fb73-05fc-42d5-ac33-4a2475a75466,7741-1061961c-2778-483e-97de-15fc47b71ca5,0,0.7123470875020708,-0.7158562072274107,1.4282032947294816,-1.0307931749994061,yoked,8,2.4589964697288877,1
0280-77b5fb73-05fc-42d5-ac33-4a2475a75466,7741-1061961c-2778-483e-97de-15fc47b71ca5,1,0.7123470875020708,-1.6902919316543032,2.402639019156374,-1.0307931749994061,yoked,9,3.43343219415578,2
0280-77b5fb73-05fc-42d5-ac33-4a2475a75466,7741-1061961c-2778-483e-97de-15fc47b71ca5,1,0.7123470875020708,-0.1468679881474199,0.8592150756494906,-1.0307931749994061,yoked,10,1.8900082506488967,2
0280-77b5fb73-05fc-42d5-ac33-4a2475a75466,7741-1061961c-2778-483e-97de-15fc47b71ca5,1,0.7123470875020708,-0.5294612699298817,1.2418083574319525,-1.0307931749994061,yoked,11,2.2726015324313584,2
0280-77b5fb73-05fc-42d5-ac33-4a2475a75466,7741-1061961c-2778-483e-97de-15fc47b71ca5,1,0.7123470875020708,-0.7444671129562102,1.456814200458281,-1.0307931749994061,yoked,12,2.487607375457687,2
0280-77b5fb73-05fc-42d5-ac33-4a2475a75466,7741-1061961c-2778-483e-97de-15fc47b71ca5,2,0.7123470875020708,-0.6545302663482054,1.3668773538502763,-1.0307931749994061,yoked,13,2.3976705288496825,3
0280-77b5fb73-05fc-42d5-ac33-4a2475a75466,7741-1061961c-2778-483e-97de-15fc47b71ca5,2,0.7123470875020708,-0.06302675193107081,0.7753738394331415,-1.0307931749994061,yoked,14,1.8061670144325477,3
0280-77b5fb73-05fc-42d5-ac33-4a2475a75466,7741-1061961c-2778-483e-97de-15fc47b71ca5,2,-1.3599353488675896,-1.289583640423295,-0.07035170844429461,-1.0307931749994061,yoked,16,0.9604414665551115,3
0280-77b5fb73-05fc-42d5-ac33-4a2475a75466,7741-1061961c-2778-483e-97de-15fc47b71ca5,2,-1.3599353488675896,0.1722832131802223,-1.532218562047812,-1.0307931749994061,yoked,17,-0.5014253870484058,3
0280-77b5fb73-05fc-42d5-ac33-4a2475a75466,7741-1061961c-2778-483e-97de-15fc47b71ca5,3,0.7123470875020708,1.444562308794411,-0.7322152212923403,-1.0307931749994061,yoked,18,0.29857795370706586,4
0280-77b5fb73-05fc-42d5-ac33-4a2475a75466,7741-1061961c-2778-483e-97de-15fc47b71ca5,3,0.7123470875020708,0.5841212892521086,0.12822579824996216,-1.0307931749994061,yoked,19,1.1590189732493683,4
0280-77b5fb73-05fc-42d5-ac33-4a2475a75466,7741-1061961c-2778-483e-97de-15fc47b71ca5,3,-1.3599353488675896,0.014729632608204027,-1.3746649814757936,-1.0307931749994061,yoked,20,-0.3438718064763875,4
0280-77b5fb73-05fc-42d5-ac33-4a2475a75466,7741-1061961c-2778-483e-97de-15fc47b71ca5,3,0.7123470875020708,0.2555477515661664,0.4567993359359044,-1.0307931749994061,yoked,21,1.4875925109353105,4
0280-77b5fb73-05fc-42d5-ac33-4a2475a75466,7741-1061961c-2778-483e-97de-15fc47b71ca5,4,0.7123470875020708,-1.4258800545149715,2.1382271420170422,-1.0307931749994061,yoked,22,3.1690203170164484,5
0280-77b5fb73-05fc-42d5-ac33-4a2475a75466,7741-1061961c-2778-483e-97de-15fc47b71ca5,4,0.7123470875020708,0.89844384206876,-0.18609675456668928,-1.0307931749994061,yoked,23,0.8446964204327169,5
0280-77b5fb73-05fc-42d5-ac33-4a2475a75466,7741-1061961c-2778-483e-97de-15fc47b71ca5,4,0.7123470875020708,0.08100397520550288,0.6313431122965679,-1.0307931749994061,yoked,25,1.662136287295974,5
0280-77b5fb73-05fc-42d5-ac33-4a2475a75466,7741-1061961c-2778-483e-97de-15fc47b71ca5,4,-1.3599353488675896,0.3650546499374964,-1.724989998805086,-1.0307931749994061,yoked,26,-0.6941968238056799,5
0280-77b5fb73-05fc-42d5-ac33-4a2475a75466,7741-1061961c-2778-483e-97de-15fc47b71ca5,5,-1.3599353488675896,1.9853423918303312,-3.345277740697921,-1.0307931749994061,yoked,27,-2.314484565698515,6
0280-77b5fb73-05fc-42d5-ac33-4a2475a75466,7741-1061961c-2778-483e-97de-15fc47b71ca5,5,-1.3599353488675896,1.348793830722029,-2.7087291795896187,-1.0307931749994061,yoked,28,-1.6779360045902125,6
0280-77b5fb73-05fc-42d5-ac33-4a2475a75466,7741-1061961c-2778-483e-97de-15fc47b71ca5,5,-1.3599353488675896,-0.3335284779167858,-1.0264068709508039,-1.0307931749994061,yoked,29,0.004386304048602296,6
0280-77b5fb73-05fc-42d5-ac33-4a2475a75466,7741-1061961c-2778-483e-97de-15fc47b71ca5,5,0.7123470875020708,0.3553338838981442,0.3570132036039266,-1.0307931749994061,yoked,30,1.3878063786033328,6
0280-77b5fb73-05fc-42d5-ac33-4a2475a75466,7741-1061961c-2778-483e-97de-15fc47b71ca5,6,0.7123470875020708,-0.8967420709506391,1.6090891584527098,-1.0307931749994061,yoked,31,2.6398823334521158,7
0280-77b5fb73-05fc-42d5-ac33-4a2475a75466,7741-1061961c-2778-483e-97de-15fc47b71ca5,6,-1.3599353488675896,0.23998565351917553,-1.5999210023867652,-1.0307931749994061,yoked,32,-0.569127827387359,7
0280-77b5fb73-05fc-42d5-ac33-4a2475a75466,7741-1061961c-2778-483e-97de-15fc47b71ca5,6,0.7123470875020708,0.4649451062774083,0.24740198122466245,-1.0307931749994061,yoked,34,1.2781951562240685,7
0280-77b5fb73-05fc-42d5-ac33-4a2475a75466,7741-1061961c-2778-483e-97de-15fc47b71ca5,6,0.7123470875020708,-1.3059329454467945,2.0182800329488653,-1.0307931749994061,yoked,35,3.0490732079482714,7
0280-77b5fb73-05fc-42d5-ac33-4a2475a75466,7741-1061961c-2778-483e-97de-15fc47b71ca5,7,0.7123470875020708,-0.14479663332009354,0.8571437208221643,-1.0307931749994061,yoked,36,1.8879368958215705,8
0280-77b5fb73-05fc-42d5-ac33-4a2475a75466,7741-1061961c-2778-483e-97de-15fc47b71ca5,7,0.7123470875020708,-1.5650289799826722,2.277376067484743,-1.0307931749994061,yoked,39,3.308169242484149,8
0280-77b5fb73-05fc-42d5-ac33-4a2475a75466,7741-1061961c-2778-483e-97de-15fc47b71ca5,7,-1.3599353488675896,-0.6776954082680792,-0.6822399405995104,-1.0307931749994061,yoked,41,0.3485532343998957,8
0280-77b5fb73-05fc-42d5-ac33-4a2475a75466,7741-1061961c-2778-483e-97de-15fc47b71ca5,7,0.7123470875020708,0.42968982566383346,0.2826572618382373,-1.0307931749994061,yoked,43,1.3134504368376434,8
0285-b34403e8-64bc-43dc-b861-af263e1bccd4,6772-f6162dc3-0f16-4174-9af4-c7b608b53734,0,0.6635804691237391,0.8689227755299682,-0.20534230640622908,-0.8949408244691193,scrambled40,2,0.6895985180628902,1
0285-b34403e8-64bc-43dc-b861-af263e1bccd4,6772-f6162dc3-0f16-4174-9af4-c7b608b53734,0,-1.459877032072226,1.388253566992812,-2.848130599065038,-0.8949408244691193,scrambled40,4,-1.9531897745959186,1
0285-b34403e8-64bc-43dc-b861-af263e1bccd4,6772-f6162dc3-0f16-4174-9af4-c7b608b53734,0,0.6635804691237391,-1.2345158593970056,1.8980963285207446,-0.8949408244691193,scrambled40,7,2.793037152989864,1
0285-b34403e8-64bc-43dc-b861-af263e1bccd4,6772-f6162dc3-0f16-4174-9af4-c7b608b53734,0,-1.459877032072226,0.9645096888537514,-2.4243867209259777,-0.8949408244691193,scrambled40,8,-1.5294458964568585,1
0285-b34403e8-64bc-43dc-b861-af263e1bccd4,8785-1369eab7-492d-453a-9260-2eede2e2c5fd,1,0.6635804691237391,-1.1379570538995116,1.8015375230232507,-0.8949408244691193,scrambled40,9,2.69647834749237,2
0285-b34403e8-64bc-43dc-b861-af263e1bccd4,8785-1369eab7-492d-453a-9260-2eede2e2c5fd,1,0.6635804691237391,-0.7185988545334668,1.382179323657206,-0.8949408244691193,scrambled40,10,2.2771201481263255,2
0285-b34403e8-64bc-43dc-b861-af263e1bccd4,8785-1369eab7-492d-453a-9260-2eede2e2c5fd,1,0.6635804691237391,0.8370866034643143,-0.17350613434057516,-0.8949408244691193,scrambled40,11,0.7214346901285441,2
0285-b34403e8-64bc-43dc-b861-af263e1bccd4,8785-1369eab7-492d-453a-9260-2eede2e2c5fd,1,0.6635804691237391,0.6984098564955737,-0.03482938737183461,-0.8949408244691193,scrambled40,12,0.8601114370972847,2
0285-b34403e8-64bc-43dc-b861-af263e1bccd4,4624-1c4fea8e-3c8f-472b-be2c-2cf5325d7939,2,-1.459877032072226,1.2804797948682864,-2.7403568269405127,-0.8949408244691193,scrambled40,13,-1.8454160024713935,3
0285-b34403e8-64bc-43dc-b861-af263e1bccd4,4624-1c4fea8e-3c8f-472b-be2c-2cf5325d7939,2,0.6635804691237391,-1.2040359223624417,1.8676163914861807,-0.8949408244691193,scrambled40,14,2.7625572159553,3
0285-b34403e8-64bc-43dc-b861-af263e1bccd4,4624-1c4fea8e-3c8f-472b-be2c-2cf5325d7939,2,-1.459877032072226,1.633983218994271,-3.0938602510664968,-0.8949408244691193,scrambled40,15,-2.1989194265973775,3
0285-b34403e8-64bc-43dc-b861-af263e1bccd4,4624-1c4fea8e-3c8f-472b-be2c-2cf5325d7939,2,0.6635804691237391,0.30695654738530487,0.35662392173843427,-0.8949408244691193,scrambled40,17,1.2515647462075536,3
0285-b34403e8-64bc-43dc-b861-af263e1bccd4,1412-204a2171-0b53-49dd-ab21-52964b3cfa71,3,0.6635804691237391,0.4918636307798837,0.17171683834385543,-0.8949408244691193,scrambled40,18,1.0666576628129747,4
0285-b34403e8-64bc-43dc-b861-af263e1bccd4,1412-204a2171-0b53-49dd-ab21-52964b3cfa71,3,-1.459877032072226,0.26061631323172346,-1.7204933453039495,-0.8949408244691193,scrambled40,19,-0.8255525208348302,4
0285-b34403e8-64bc-43dc-b861-af263e1bccd4,1412-204a2171-0b53-49dd-ab21-52964b3cfa71,3,0.6635804691237391,-1.2003972195228656,1.8639776886466048,-0.8949408244691193,scrambled40,20,2.758918513115724,4
0285-b34403e8-64bc-43dc-b861-af263e1bccd4,1412-204a2171-0b53-49dd-ab21-52964b3cfa71,3,-1.459877032072226,1.3387342023711073,-2.7986112344433334,-0.8949408244691193,scrambled40,21,-1.903670409974214,4
0285-b34403e8-64bc-43dc-b861-af263e1bccd4,6872-628d5dc4-0694-4035-8076-a1254e999c1d,4,0.6635804691237391,0.1434416354449947,0.5201388336787445,-0.8949408244691193,scrambled40,22,1.4150796581478637,5
0285-b34403e8-64bc-43dc-b861-af263e1bccd4,6872-628d5dc4-0694-4035-8076-a1254e999c1d,4,-1.459877032072226,0.557900850929273,-2.017777883001499,-0.8949408244691193,scrambled40,23,-1.12283705853238,5
0285-b34403e8-64bc-43dc-b861-af263e1bccd4,6872-628d5dc4-0694-4035-8076-a1254e999c1d,4,0.6635804691237391,-0.32336931910378747,0.9869497882275267,-0.8949408244691193,scrambled40,24,1.881890612696646,5
0285-b34403e8-64bc-43dc-b861-af263e1bccd4,6872-628d5dc4-0694-4035-8076-a1254e999c1d,4,0.6635804691237391,-1.6783593864577517,2.341939855581491,-0.8949408244691193,scrambled40,25,3.2368806800506102,5
0285-b34403e8-64bc-43dc-b861-af263e1bccd4,5535-af4e7c1c-b29d-4130-b236-7c050622d17e,5,-1.459877032072226,0.6434777078432532,-2.1033547399154795,-0.8949408244691193,scrambled40,27,-1.2084139154463602,6
0285-b34403e8-64bc-43dc-b861-af263e1bccd4,5535-af4e7c1c-b29d-4130-b236-7c050622d17e,5,-1.459877032072226,-0.7165051061104567,-0.7433719259617694,-0.8949408244691193,scrambled40,28,0.1515688985073499,6
0285-b34403e8-64bc-43dc-b861-af263e1bccd4,5535-af4e7c1c-b29d-4130-b236-7c050622d17e,5,-1.459877032072226,-0.41853529402947204,-1.041341738042754,-0.8949408244691193,scrambled40,29,-0.14640091357363483,6
0285-b34403e8-64bc-43dc-b861-af263e1bccd4,5535-af4e7c1c-b29d-4130-b236-7c050622d17e,5,0.6635804691237391,-1.6062698527100263,2.2698503218337653,-0.8949408244691193,scrambled40,30,3.1647911463028846,6
0285-b34403e8-64bc-43dc-b861-af263e1bccd4,7341-3634e0b6-be5a-407f-bcd4-183cb00620a7,6,0.6635804691237391,0.9795493158469052,-0.31596884672316605,-0.8949408244691193,scrambled40,31,0.5789719777459532,7
0285-b34403e8-64bc-43dc-b861-af263e1bccd4,7341-3634e0b6-be5a-407f-bcd4-183cb00620a7,6,0.6635804691237391,0.1256622048429223,0.5379182642808169,-0.8949408244691193,scrambled40,32,1.4328590887499362,7
0285-b34403e8-64bc-43dc-b861-af263e1bccd4,7341-3634e0b6-be5a-407f-bcd4-183cb00620a7,6,0.6635804691237391,0.47733074784033963,0.1862497212833995,-0.8949408244691193,scrambled40,33,1.0811905457525188,7
0285-b34403e8-64bc-43dc-b861-af263e1bccd4,7341-3634e0b6-be5a-407f-bcd4-183cb00620a7,6,0.6635804691237391,-1.3403104987384915,2.0038909678622305,-0.8949408244691193,scrambled40,35,2.89883179233135,7
0285-b34403e8-64bc-43dc-b861-af263e1bccd4,5947-794501d9-b90d-4151-a7c9-149c399c5df3,7,0.6635804691237391,-1.7434738419648652,2.4070543110886042,-0.8949408244691193,scrambled40,37,3.3019951355577235,8
0285-b34403e8-64bc-43dc-b861-af263e1bccd4,5947-794501d9-b90d-4151-a7c9-149c399c5df3,7,0.6635804691237391,0.6379337464672729,0.02564672265646628,-0.8949408244691193,scrambled40,40,0.9205875471255855,8
0285-b34403e8-64bc-43dc-b861-af263e1bccd4,5947-794501d9-b90d-4151-a7c9-149c399c5df3,7,0.6635804691237391,-0.2901029417268866,0.9536834108506258,-0.8949408244691193,scrambled40,41,1.848624235319745,8
0285-b34403e8-64bc-43dc-b861-af263e1bccd4,5947-794501d9-b90d-4151-a7c9-149c399c5df3,7,0.6635804691237391,-0.02268125762485846,0.6862617267485976,-0.8949408244691193,scrambled40,43,1.581202551217717,8
0383-21dac0be-ba1d-4d1c-9b04-2f878a8e315a,3245-cecc1d04-f555-4899-9882-7b42d86b8731,0,0.7623959841019966,1.8876145933699442,-1.1252186092679475,0.16451555892622877,scrambled40,0,-1.2897341681941763,1
0383-21dac0be-ba1d-4d1c-9b04-2f878a8e315a,3245-cecc1d04-f555-4899-9882-7b42d86b8731,0,0.7623959841019966,-1.699902556849478,2.462298540951475,0.16451555892622877,scrambled40,3,2.2977829820252462,1
0383-21dac0be-ba1d-4d1c-9b04-2f878a8e315a,3245-cecc1d04-f555-4899-9882-7b42d86b8731,0,-1.2706599735033277,0.6341510500290998,-1.9048110235324276,0.16451555892622877,scrambled40,5,-2.069326582458656,1
0383-21dac0be-ba1d-4d1c-9b04-2f878a8e315a,3245-cecc1d04-f555-4899-9882-7b42d86b8731,0,0.7623959841019966,-0.46339734345180356,1.2257933275538002,0.16451555892622877,scrambled40,6,1.0612777686275714,1
0383-21dac0be-ba1d-4d1c-9b04-2f878a8e315a,9492-4bcab97d-2a21-46e9-86e8-c6cd5a8c51a8,1,-1.2706599735033277,0.5664032315594881,-1.8370632050628157,0.16451555892622877,scrambled40,9,-2.0015787639890443,2
0383-21dac0be-ba1d-4d1c-9b04-2f878a8e315a,9492-4bcab97d-2a21-46e9-86e8-c6cd5a8c51a8,1,-1.2706599735033277,-0.640922864841277,-0.6297371086620507,0.16451555892622877,scrambled40,11,-0.7942526675882795,2
0383-21dac0be-ba1d-4d1c-9b04-2f878a8e315a,9492-4bcab97d-2a21-46e9-86e8-c6cd5a8c51a8,1,-1.2706599735033277,-1.0033336993817241,-0.2673262741216036,0.16451555892622877,scrambled40,12,-0.43184183304783236,2
0383-21dac0be-ba1d-4d1c-9b04-2f878a8e315a,9492-4bcab97d-2a21-46e9-86e8-c6cd5a8c51a8,1,0.7623959841019966,-0.041366201866717627,0.8037621859687142,0.16451555892622877,scrambled40,13,0.6392466270424855,2
0383-21dac0be-ba1d-4d1c-9b04-2f878a8e315a,6536-ddd87807-e52d-40c9-b424-f2e0a77e5067,2,0.7623959841019966,0.6872445099048372,0.0751514741971594,0.16451555892622877,scrambled40,14,-0.08936408472906937,3
0383-21dac0be-ba1d-4d1c-9b04-2f878a8e315a,6536-ddd87807-e52d-40c9-b424-f2e0a77e5067,2,-1.2706599735033277,-0.267341687569156,-1.0033182859341716,0.16451555892622877,scrambled40,15,-1.1678338448604004,3
0383-21dac0be-ba1d-4d1c-9b04-2f878a8e315a,6536-ddd87807-e52d-40c9-b424-f2e0a77e5067,2,0.7623959841019966,1.0967156541152416,-0.33431967001324503,0.16451555892622877,scrambled40,16,-0.4988352289394738,3
0383-21dac0be-ba1d-4d1c-9b04-2f878a8e315a,6536-ddd87807-e52d-40c9-b424-f2e0a77e5067,2,-1.2706599735033277,1.6843928083062332,-2.955052781809561,0.16451555892622877,scrambled40,17,-3.1195683407357895,3
0383-21dac0be-ba1d-4d1c-9b04-2f878a8e315a,7568-6a43348e-ae52-4ace-90be-a9ae4b199167,3,-1.2706599735033277,0.3195057472963593,-1.5901657207996869,0.16451555892622877,scrambled40,18,-1.7546812797259157,4
0383-21dac0be-ba1d-4d1c-9b04-2f878a8e315a,7568-6a43348e-ae52-4ace-90be-a9ae4b199167,3,0.7623959841019966,-0.9293402627413213,1.691736246843318,0.16451555892622877,scrambled40,19,1.527220687917089,4
0383-21dac0be-ba1d-4d1c-9b04-2f878a8e315a,7568-6a43348e-ae52-4ace-90be-a9ae4b199167,3,0.7623959841019966,-0.12290881294319217,0.8853047970451888,0.16451555892622877,scrambled40,20,0.72078923811896,4
0383-21dac0be-ba1d-4d1c-9b04-2f878a8e315a,7568-6a43348e-ae52-4ace-90be-a9ae4b199167,3,0.7623959841019966,1.0617824127629587,-0.2993864286609621,0.16451555892622877,scrambled40,22,-0.46390198758719087,4
0383-21dac0be-ba1d-4d1c-9b04-2f878a8e315a,1492-f60d96c2-2d47-4a57-9c5e-80921dc3ce19,4,-1.2706599735033277,0.7253702606682274,-1.9960302341715552,0.16451555892622877,scrambled40,23,-2.160545793097784,5
0383-21dac0be-ba1d-4d1c-9b04-2f878a8e315a,1492-f60d96c2-2d47-4a57-9c5e-80921dc3ce19,4,0.7623959841019966,0.2738053902565427,0.4885905938454539,0.16451555892622877,scrambled40,24,0.3240750349192251,5
0383-21dac0be-ba1d-4d1c-9b04-2f878a8e315a,1492-f60d96c2-2d47-4a57-9c5e-80921dc3ce19,4,-1.2706599735033277,-0.6958896989053585,-0.5747702745979693,0.16451555892622877,scrambled40,25,-0.7392858335241981,5
0383-21dac0be-ba1d-4d1c-9b04-2f878a8e315a,1492-f60d96c2-2d47-4a57-9c5e-80921dc3ce19,4,0.7623959841019966,-1.0824982525754563,1.8448942366774528,0.16451555892622877,scrambled40,26,1.680378677751224,5
0383-21dac0be-ba1d-4d1c-9b04-2f878a8e315a,1042-2da3c5b1-5245-41b5-99e2-67f6bb139727,5,-1.2706599735033277,-1.1961217952951697,-0.074538178208158,0.16451555892622877,scrambled40,27,-0.23905373713438677,6
0383-21dac0be-ba1d-4d1c-9b04-2f878a8e315a,1042-2da3c5b1-5245-41b5-99e2-67f6bb139727,5,0.7623959841019966,0.9070083808052799,-0.1446123967032833,0.16451555892622877,scrambled40,28,-0.30912795562951206,6
0383-21dac0be-ba1d-4d1c-9b04-2f878a8e315a,1042-2da3c5b1-5245-41b5-99e2-67f6bb139727,5,-1.2706599735033277,0.6444789225928654,-1.915138896096193,0.16451555892622877,scrambled40,29,-2.0796544550224216,6
0383-21dac0be-ba1d-4d1c-9b04-2f878a8e315a,1042-2da3c5b1-5245-41b5-99e2-67f6bb139727,5,0.7623959841019966,0.26911443320181017,0.49328155090018644,0.16451555892622877,scrambled40,30,0.32876599197395767,6
0383-21dac0be-ba1d-4d1c-9b04-2f878a8e315a,2807-335c0e0e-0734-44fd-a5a9-a208cfaf9dcf,6,0.7623959841019966,0.45014259886854013,0.31225338523345647,0.16451555892622877,scrambled40,31,0.1477378263072277,7
0383-21dac0be-ba1d-4d1c-9b04-2f878a8e315a,2807-335c0e0e-0734-44fd-a5a9-a208cfaf9dcf,6,0.7623959841019966,-1.2979186185459022,2.0603146026478987,0.16451555892622877,scrambled40,32,1.8957990437216699,7
0383-21dac0be-ba1d-4d1c-9b04-2f878a8e315a,2807-335c0e0e-0734-44fd-a5a9-a208cfaf9dcf,6,-1.2706599735033277,-0.4767938423064435,-0.7938661311968842,0.16451555892622877,scrambled40,34,-0.958381690123113,7
0383-21dac0be-ba1d-4d1c-9b04-2f878a8e315a,2807-335c0e0e-0734-44fd-a5a9-a208cfaf9dcf,6,0.7623959841019966,-1.274936370283345,2.0373323543853417,0.16451555892622877,scrambled40,35,1.8728167954591128,7
0383-21dac0be-ba1d-4d1c-9b04-2f878a8e315a,8229-83376fb4-5072-4ef2-8968-99580920fa3d,7,0.7623959841019966,-0.550098744109482,1.3124947282114787,0.16451555892622877,scrambled40,38,1.14797916928525,8
0383-21dac0be-ba1d-4d1c-9b04-2f878a8e315a,8229-83376fb4-5072-4ef2-8968-99580920fa3d,7,0.7623959841019966,0.4815161932337464,0.2808797908682502,0.16451555892622877,scrambled40,39,0.11636423194202145,8
0383-21dac0be-ba1d-4d1c-9b04-2f878a8e315a,8229-83376fb4-5072-4ef2-8968-99580920fa3d,7,0.7623959841019966,-1.7373045561867975,2.499700540288794,0.16451555892622877,scrambled40,40,2.3351849813625654,8
0383-21dac0be-ba1d-4d1c-9b04-2f878a8e315a,8229-83376fb4-5072-4ef2-8968-99580920fa3d,7,0.7623959841019966,1.7908291208814693,-1.0284331367794728,0.16451555892622877,scrambled40,43,-1.1929486957057016,8
0392-ea0ed0d8-3529-4374-a59d-3b9fb386f3f5,6927-b3625f39-36ea-4dad-95d4-86d37d2d6374,0,-1.573430521271363,-1.0874344773994882,-0.4859960438718749,-0.35973575354127685,scrambled40,0,-0.12626029033059805,1
0392-ea0ed0d8-3529-4374-a59d-3b9fb386f3f5,6927-b3625f39-36ea-4dad-95d4-86d37d2d6374,0,0.6156902039757508,-1.1729118340714737,1.7886020380472245,-0.35973575354127685,scrambled40,3,2.148337791588501,1
0392-ea0ed0d8-3529-4374-a59d-3b9fb386f3f5,6927-b3625f39-36ea-4dad-95d4-86d37d2d6374,0,-1.573430521271363,-0.12333710873943468,-1.4500934125319285,-0.35973575354127685,scrambled40,4,-1.0903576589906516,1
0392-ea0ed0d8-3529-4374-a59d-3b9fb386f3f5,6927-b3625f39-36ea-4dad-95d4-86d37d2d6374,0,-1.573430521271363,-0.2819749254628344,-1.2914555958085288,-0.35973575354127685,scrambled40,7,-0.9317198422672519,1
0392-ea0ed0d8-3529-4374-a59d-3b9fb386f3f5,8707-1729a3f9-2a95-41fa-958b-10f02f3817e3,1,0.6156902039757508,-0.03631379600213139,0.6520039999778822,-0.35973575354127685,scrambled40,9,1.011739753519159,2
0392-ea0ed0d8-3529-4374-a59d-3b9fb386f3f5,8707-1729a3f9-2a95-41fa-958b-10f02f3817e3,1,0.6156902039757508,-1.368171478245135,1.9838616822208859,-0.35973575354127685,scrambled40,10,2.3435974357621627,2
0392-ea0ed0d8-3529-4374-a59d-3b9fb386f3f5,8707-1729a3f9-2a95-41fa-958b-10f02f3817e3,1,-1.573430521271363,0.15728462861176573,-1.7307151498831288,-0.35973575354127685,scrambled40,11,-1.370979396341852,2
0392-ea0ed0d8-3529-4374-a59d-3b9fb386f3f5,8707-1729a3f9-2a95-41fa-958b-10f02f3817e3,1,0.6156902039757508,0.259388105935025,0.3563020980407258,-0.35973575354127685,scrambled40,12,0.7160378515820027,2
0392-ea0ed0d8-3529-4374-a59d-3b9fb386f3f5,4739-5bf26240-8a66-496d-9913-5613608e4ed0,2,-1.573430521271363,0.47450553686682384,-2.0479360581381867,-0.35973575354127685,scrambled40,13,-1.6882003045969098,3
0392-ea0ed0d8-3529-4374-a59d-3b9fb386f3f5,4739-5bf26240-8a66-496d-9913-5613608e4ed0,2,-1.573430521271363,-1.090678498923438,-0.48275202234792514,-0.35973575354127685,scrambled40,14,-0.12301626880664829,3
0392-ea0ed0d8-3529-4374-a59d-3b9fb386f3f5,4739-5bf26240-8a66-496d-9913-5613608e4ed0,2,0.6156902039757508,-0.1381827248075291,0.7538729287832799,-0.35973575354127685,scrambled40,15,1.1136086823245568,3
0392-ea0ed0d8-3529-4374-a59d-3b9fb386f3f5,4739-5bf26240-8a66-496d-9913-5613608e4ed0,2,-1.573430521271363,0.4886166817312994,-2.0620472030026624,-0.35973575354127685,scrambled40,16,-1.7023114494613856,3
0392-ea0ed0d8-3529-4374-a59d-3b9fb386f3f5,4071-d4fa2274-0805-41c8-8ebc-819ddc2b5c56,3,0.6156902039757508,-1.0955509581271876,1.7112411621029384,-0.35973575354127685,scrambled40,18,2.0709769156442155,4
0392-ea0ed0d8-3529-4374-a59d-3b9fb386f3f5,4071-d4fa2274-0805-41c8-8ebc-819ddc2b5c56,3,0.6156902039757508,0.6029774660734882,0.012712737902262572,-0.35973575354127685,scrambled40,19,0.3724484914435394,4
0392-ea0ed0d8-3529-4374-a59d-3b9fb386f3f5,4071-d4fa2274-0805-41c8-8ebc-819ddc2b5c56,3,0.6156902039757508,0.07342137947379258,0.5422688245019582,-0.35973575354127685,scrambled40,20,0.9020045780432351,4
0392-ea0ed0d8-3529-4374-a59d-3b9fb386f3f5,4071-d4fa2274-0805-41c8-8ebc-819ddc2b5c56,3,0.6156902039757508,-0.6541760002549435,1.2698662042306943,-0.35973575354127685,scrambled40,22,1.6296019577719711,4
0392-ea0ed0d8-3529-4374-a59d-3b9fb386f3f5,6120-ca71c6e2-e718-4115-bc46-65fa0cc286e4,4,0.6156902039757508,2.1897563951540775,-1.5740661911783267,-0.35973575354127685,scrambled40,23,-1.2143304376370498,5
0392-ea0ed0d8-3529-4374-a59d-3b9fb386f3f5,6120-ca71c6e2-e718-4115-bc46-65fa0cc286e4,4,0.6156902039757508,3.15136392956723,-2.5356737255914794,-0.35973575354127685,scrambled40,24,-2.1759379720502023,5
0392-ea0ed0d8-3529-4374-a59d-3b9fb386f3f5,6120-ca71c6e2-e718-4115-bc46-65fa0cc286e4,4,0.6156902039757508,-1.9705684172307418,2.5862586212064924,-0.35973575354127685,scrambled40,25,2.9459943747477695,5
0392-ea0ed0d8-3529-4374-a59d-3b9fb386f3f5,6120-ca71c6e2-e718-4115-bc46-65fa0cc286e4,4,0.6156902039757508,1.0159772596971948,-0.40028705572144396,-0.35973575354127685,scrambled40,26,-0.040551302180167115,5
0392-ea0ed0d8-3529-4374-a59d-3b9fb386f3f5,7045-14ff9933-44b0-4f33-88eb-7553a225015f,5,0.6156902039757508,0.5658013541342302,0.049888849841520644,-0.35973575354127685,scrambled40,27,0.4096246033827975,6
0392-ea0ed0d8-3529-4374-a59d-3b9fb386f3f5,7045-14ff9933-44b0-4f33-88eb-7553a225015f,5,0.6156902039757508,0.04102241966382367,0.5746677843119271,-0.35973575354127685,scrambled40,29,0.934403537853204,6
0392-ea0ed0d8-3529-4374-a59d-3b9fb386f3f5,7045-14ff9933-44b0-4f33-88eb-7553a225015f,5,-1.573430521271363,0.32869059088765107,-1.9021211121590142,-0.35973575354127685,scrambled40,30,-1.5423853586177374,6
0392-ea0ed0d8-3529-4374-a59d-3b9fb386f3f5,7045-14ff9933-44b0-4f33-88eb-7553a225015f,5,0.6156902039757508,-0.2269553856001234,0.8426455895758742,-0.35973575354127685,scrambled40,31,1.202381343117151,6
0392-ea0ed0d8-3529-4374-a59d-3b9fb386f3f5,9354-cc5a3e6e-9f38-444b-9be0-f4b6f63740bf,6,0.6156902039757508,-0.49971395180860684,1.1154041557843577,-0.35973575354127685,scrambled40,32,1.4751399093256345,7
0392-ea0ed0d8-3529-4374-a59d-3b9fb386f3f5,9354-cc5a3e6e-9f38-444b-9be0-f4b6f63740bf,6,0.6156902039757508,-0.6129160279775006,1.2286062319532514,-0.35973575354127685,scrambled40,33,1.5883419854945282,7
0392-ea0ed0d8-3529-4374-a59d-3b9fb386f3f5,9354-cc5a3e6e-9f38-444b-9be0-f4b6f63740bf,6,0.6156902039757508,0.7468970840938858,-0.13120688011813497,-0.35973575354127685,scrambled40,34,0.22852887342314188,7
0392-ea0ed0d8-3529-4374-a59d-3b9fb386f3f5,9354-cc5a3e6e-9f38-444b-9be0-f4b6f63740bf,6,-1.573430521271363,0.8958830554253994,-2.4693135766967624,-0.35973575354127685,scrambled40,35,-2.109577823155486,7
0392-ea0ed0d8-3529-4374-a59d-3b9fb386f3f5,3588-fb1519f8-64c7-4068-bd03-a9e71b8a721d,7,0.6156902039757508,0.27816068123600146,0.33752952273974934,-0.35973575354127685,scrambled40,37,0.6972652762810262,8
0392-ea0ed0d8-3529-4374-a59d-3b9fb386f3f5,3588-fb1519f8-64c7-4068-bd03-a9e71b8a721d,7,0.6156902039757508,-0.21533609754549976,0.8310263015212506,-0.35973575354127685,scrambled40,40,1.1907620550625273,8
0392-ea0ed0d8-3529-4374-a59d-3b9fb386f3f5,3588-fb1519f8-64c7-4068-bd03-a9e71b8a721d,7,0.6156902039757508,-0.6924309039656885,1.3081211079414392,-0.35973575354127685,scrambled40,41,1.667856861482716,8
0392-ea0ed0d8-3529-4374-a59d-3b9fb386f3f5,3588-fb1519f8-64c7-4068-bd03-a9e71b8a721d,7,0.6156902039757508,-0.003093982389923934,0.6187841863656748,-0.35973575354127685,scrambled40,44,0.9785199399069516,8
0399-fe59fedb-8d03-4238-9053-cb66c9cc82dc,1042-2da3c5b1-5245-41b5-99e2-67f6bb139727,0,0.37201079743186033,0.1777753744203528,0.19423542301150754,0.1082836875665597,scrambled40,1,0.08595173544494783,1
0399-fe59fedb-8d03-4238-9053-cb66c9cc82dc,1042-2da3c5b1-5245-41b5-99e2-67f6bb139727,0,0.37201079743186033,-0.6584647751823465,1.0304755726142067,0.1082836875665597,scrambled40,3,0.922191885047647,1
0399-fe59fedb-8d03-4238-9053-cb66c9cc82dc,1042-2da3c5b1-5245-41b5-99e2-67f6bb139727,0,0.37201079743186033,1.1098386125757442,-0.737827815143884,0.1082836875665597,scrambled40,6,-0.8461115027104437,1
0399-fe59fedb-8d03-4238-9053-cb66c9cc82dc,1042-2da3c5b1-5245-41b5-99e2-67f6bb139727,0,0.37201079743186033,0.425759227647449,-0.05374843021558867,0.1082836875665597,scrambled40,8,-0.16203211778214838,1
0399-fe59fedb-8d03-4238-9053-cb66c9cc82dc,2807-335c0e0e-0734-44fd-a5a9-a208cfaf9dcf,1,0.37201079743186033,1.400835862583196,-1.0288250651513358,0.1082836875665597,scrambled40,9,-1.1371087527178956,2
0399-fe59fedb-8d03-4238-9053-cb66c9cc82dc,2807-335c0e0e-0734-44fd-a5a9-a208cfaf9dcf,1,0.37201079743186033,-1.0478800412694278,1.419890838701288,0.1082836875665597,scrambled40,10,1.3116071511347283,2
0399-fe59fedb-8d03-4238-9053-cb66c9cc82dc,2807-335c0e0e-0734-44fd-a5a9-a208cfaf9dcf,1,0.37201079743186033,-0.6422673034840782,1.0142781009159385,0.1082836875665597,scrambled40,11,0.9059944133493788,2
0399-fe59fedb-8d03-4238-9053-cb66c9cc82dc,2807-335c0e0e-0734-44fd-a5a9-a208cfaf9dcf,1,0.37201079743186033,-1.1913989150221407,1.563409712454001,0.1082836875665597,scrambled40,13,1.4551260248874414,2
0399-fe59fedb-8d03-4238-9053-cb66c9cc82dc,8229-83376fb4-5072-4ef2-8968-99580920fa3d,2,0.37201079743186033,0.07601157523415276,0.2959992221977076,0.1082836875665597,scrambled40,14,0.18771553463114787,3
0399-fe59fedb-8d03-4238-9053-cb66c9cc82dc,8229-83376fb4-5072-4ef2-8968-99580920fa3d,2,0.37201079743186033,0.9223636996784239,-0.5503529022465636,0.1082836875665597,scrambled40,15,-0.6586365898131233,3
0399-fe59fedb-8d03-4238-9053-cb66c9cc82dc,8229-83376fb4-5072-4ef2-8968-99580920fa3d,2,0.37201079743186033,-0.5317343882863979,0.9037451857182581,0.1082836875665597,scrambled40,16,0.7954614981516984,3
0399-fe59fedb-8d03-4238-9053-cb66c9cc82dc,8229-83376fb4-5072-4ef2-8968-99580920fa3d,2,0.37201079743186033,-0.59337460897034,0.9653854064022003,0.1082836875665597,scrambled40,17,0.8571017188356406,3
0399-fe59fedb-8d03-4238-9053-cb66c9cc82dc,0130-40464c88-2dc5-4cda-b0d7-0612c6ad5469,3,0.37201079743186033,1.9409004862018973,-1.568889688770037,0.1082836875665597,scrambled40,18,-1.6771733763365968,4
0399-fe59fedb-8d03-4238-9053-cb66c9cc82dc,0130-40464c88-2dc5-4cda-b0d7-0612c6ad5469,3,0.37201079743186033,-0.4592456203329563,0.8312564177648166,0.1082836875665597,scrambled40,20,0.7229727301982569,4
0399-fe59fedb-8d03-4238-9053-cb66c9cc82dc,0130-40464c88-2dc5-4cda-b0d7-0612c6ad5469,3,0.37201079743186033,-0.10233163989755736,0.4743424373294177,0.1082836875665597,scrambled40,21,0.366058749762858,4
0399-fe59fedb-8d03-4238-9053-cb66c9cc82dc,0130-40464c88-2dc5-4cda-b0d7-0612c6ad5469,3,0.37201079743186033,2.155230110560492,-1.7832193131286316,0.1082836875665597,scrambled40,22,-1.8915030006951912,4
0399-fe59fedb-8d03-4238-9053-cb66c9cc82dc,8048-160ae10f-7771-4c91-afc8-327a313ef352,4,0.37201079743186033,0.19793995530187383,0.1740708421299865,0.1082836875665597,scrambled40,23,0.06578715456342679,5
0399-fe59fedb-8d03-4238-9053-cb66c9cc82dc,8048-160ae10f-7771-4c91-afc8-327a313ef352,4,0.37201079743186033,-1.0719949474340758,1.444005744865936,0.1082836875665597,scrambled40,24,1.3357220572993764,5
0399-fe59fedb-8d03-4238-9053-cb66c9cc82dc,8048-160ae10f-7771-4c91-afc8-327a313ef352,4,-2.6040755820230226,0.2163467376579093,-2.8204223196809317,0.1082836875665597,scrambled40,25,-2.9287060072474915,5
0399-fe59fedb-8d03-4238-9053-cb66c9cc82dc,8048-160ae10f-7771-4c91-afc8-327a313ef352,4,0.37201079743186033,0.37329355711391277,-0.0012827596820524367,0.1082836875665597,scrambled40,26,-0.10956644724861214,5
0399-fe59fedb-8d03-4238-9053-cb66c9cc82dc,2582-43829dc7-7d27-49e3-ac60-4b382057d432,5,0.37201079743186033,-0.7621992774247706,1.1342100748566308,0.1082836875665597,scrambled40,27,1.0259263872900712,6
0399-fe59fedb-8d03-4238-9053-cb66c9cc82dc,2582-43829dc7-7d27-49e3-ac60-4b382057d432,5,0.37201079743186033,0.6137307838241314,-0.24171998639227105,0.1082836875665597,scrambled40,29,-0.35000367395883075,6
0399-fe59fedb-8d03-4238-9053-cb66c9cc82dc,2582-43829dc7-7d27-49e3-ac60-4b382057d432,5,-2.6040755820230226,-0.13801647193228098,-2.4660591100907414,0.1082836875665597,scrambled40,30,-2.5743427976573012,6
0399-fe59fedb-8d03-4238-9053-cb66c9cc82dc,2582-43829dc7-7d27-49e3-ac60-4b382057d432,5,-2.6040755820230226,0.5073887686775145,-3.111464350700537,0.1082836875665597,scrambled40,31,-3.2197480382670967,6
0399-fe59fedb-8d03-4238-9053-cb66c9cc82dc,9560-3f1bf02e-7f37-4933-a418-3038fcfbb51f,6,0.37201079743186033,0.08062043129136601,0.2913903661404943,0.1082836875665597,scrambled40,32,0.1831066785739346,7
0399-fe59fedb-8d03-4238-9053-cb66c9cc82dc,9560-3f1bf02e-7f37-4933-a418-3038fcfbb51f,6,-2.6040755820230226,0.46182035772654856,-3.0658959397495713,0.1082836875665597,scrambled40,33,-3.174179627316131,7
0399-fe59fedb-8d03-4238-9053-cb66c9cc82dc,9560-3f1bf02e-7f37-4933-a418-3038fcfbb51f,6,0.37201079743186033,-0.832520068147925,1.2045308655797853,0.1082836875665597,scrambled40,34,1.0962471780132255,7
0399-fe59fedb-8d03-4238-9053-cb66c9cc82dc,9560-3f1bf02e-7f37-4933-a418-3038fcfbb51f,6,0.37201079743186033,-1.060058184187892,1.4320689816197523,0.1082836875665597,scrambled40,35,1.3237852940531925,7
0399-fe59fedb-8d03-4238-9053-cb66c9cc82dc,9345-78852c80-4277-4c8a-b950-7fec3d6b6c29,7,0.37201079743186033,1.11342435130322,-0.7414135538713598,0.1082836875665597,scrambled40,36,-0.8496972414379195,8
0399-fe59fedb-8d03-4238-9053-cb66c9cc82dc,9345-78852c80-4277-4c8a-b950-7fec3d6b6c29,7,0.37201079743186033,-2.3283053783951324,2.700316175826993,0.1082836875665597,scrambled40,39,2.592032488260433,8
0399-fe59fedb-8d03-4238-9053-cb66c9cc82dc,9345-78852c80-4277-4c8a-b950-7fec3d6b6c29,7,0.37201079743186033,0.9928960931116698,-0.6208852956798094,0.1082836875665597,scrambled40,42,-0.7291689832463691,8
0399-fe59fedb-8d03-4238-9053-cb66c9cc82dc,9345-78852c80-4277-4c8a-b950-7fec3d6b6c29,7,0.37201079743186033,-1.3463843649425342,1.7183951623743945,0.1082836875665597,scrambled40,44,1.6101114748078347,8
0410-f524277c-690f-4db1-8415-a8b202362033,2936-660b9b61-e734-4f96-9576-35534d578c9a,0,0.814141443914387,1.1440544835705846,-0.32991303965619756,-1.8080748760001661,scrambled40,4,1.4781618363439686,1
0410-f524277c-690f-4db1-8415-a8b202362033,2936-660b9b61-e734-4f96-9576-35534d578c9a,0,-1.189899033413335,1.1721225127374821,-2.3620215461508174,-1.8080748760001661,scrambled40,5,-0.5539466701506512,1
0410-f524277c-690f-4db1-8415-a8b202362033,2936-660b9b61-e734-4f96-9576-35534d578c9a,0,-1.189899033413335,1.1597333349860808,-2.3496323683994156,-1.8080748760001661,scrambled40,6,-0.5415574923992494,1
0410-f524277c-690f-4db1-8415-a8b202362033,2936-660b9b61-e734-4f96-9576-35534d578c9a,0,-1.189899033413335,1.0008335163809048,-2.19073254979424,-1.8080748760001661,scrambled40,8,-0.3826576737940739,1
0410-f524277c-690f-4db1-8415-a8b202362033,5297-e490874a-efa4-409f-94ad-2ab56ee9730f,1,0.814141443914387,0.8988017041285014,-0.08466026021411432,-1.8080748760001661,scrambled40,9,1.723414615786052,2
0410-f524277c-690f-4db1-8415-a8b202362033,5297-e490874a-efa4-409f-94ad-2ab56ee9730f,1,0.814141443914387,1.4284408440811087,-0.6142994001667217,-1.8080748760001661,scrambled40,10,1.1937754758334445,2
0410-f524277c-690f-4db1-8415-a8b202362033,5297-e490874a-efa4-409f-94ad-2ab56ee9730f,1,-1.189899033413335,1.1615721996333837,-2.351471233046719,-1.8080748760001661,scrambled40,11,-0.5433963570465528,2
0410-f524277c-690f-4db1-8415-a8b202362033,5297-e490874a-efa4-409f-94ad-2ab56ee9730f,1,0.814141443914387,-1.0423483288076396,1.8564897727220266,-1.8080748760001661,scrambled40,12,3.664564648722193,2
0410-f524277c-690f-4db1-8415-a8b202362033,8951-67819938-bf58-4cc5-b6ab-1747a3766e34,2,0.814141443914387,-1.1989808430116045,2.0131222869259915,-1.8080748760001661,scrambled40,13,3.8211971629261576,3
0410-f524277c-690f-4db1-8415-a8b202362033,8951-67819938-bf58-4cc5-b6ab-1747a3766e34,2,-1.189899033413335,-0.7259289608792634,-0.46397007253407163,-1.8080748760001661,scrambled40,15,1.3441048034660945,3
0410-f524277c-690f-4db1-8415-a8b202362033,8951-67819938-bf58-4cc5-b6ab-1747a3766e34,2,0.814141443914387,-1.5457621944316196,2.3599036383460064,-1.8080748760001661,scrambled40,16,4.1679785143461725,3
0410-f524277c-690f-4db1-8415-a8b202362033,8951-67819938-bf58-4cc5-b6ab-1747a3766e34,2,-1.189899033413335,1.1935601317959348,-2.3834591652092696,-1.8080748760001661,scrambled40,17,-0.5753842892091034,3
0410-f524277c-690f-4db1-8415-a8b202362033,8347-e577b971-1c3c-42b6-93bd-218e2c9891f6,3,0.814141443914387,-1.0203802841695122,1.8345217280838992,-1.8080748760001661,scrambled40,18,3.6425966040840656,4
0410-f524277c-690f-4db1-8415-a8b202362033,8347-e577b971-1c3c-42b6-93bd-218e2c9891f6,3,0.814141443914387,0.18933891585766865,0.6248025280567184,-1.8080748760001661,scrambled40,19,2.4328774040568844,4
0410-f524277c-690f-4db1-8415-a8b202362033,8347-e577b971-1c3c-42b6-93bd-218e2c9891f6,3,0.814141443914387,0.1724330316056384,0.6417084123087486,-1.8080748760001661,scrambled40,20,2.4497832883089146,4
0410-f524277c-690f-4db1-8415-a8b202362033,8347-e577b971-1c3c-42b6-93bd-218e2c9891f6,3,-1.189899033413335,0.01623795689654396,-1.206136990309879,-1.8080748760001661,scrambled40,22,0.6019378856902871,4
0410-f524277c-690f-4db1-8415-a8b202362033,3605-55cf814e-89d1-43c8-bb60-d15358fb95af,4,0.814141443914387,-1.108269812480011,1.922411256394398,-1.8080748760001661,scrambled40,23,3.730486132394564,5
0410-f524277c-690f-4db1-8415-a8b202362033,3605-55cf814e-89d1-43c8-bb60-d15358fb95af,4,0.814141443914387,-1.96187429285407,2.776015736768457,-1.8080748760001661,scrambled40,24,4.584090612768623,5
0410-f524277c-690f-4db1-8415-a8b202362033,3605-55cf814e-89d1-43c8-bb60-d15358fb95af,4,0.814141443914387,-0.3971746751563979,1.2113161190707848,-1.8080748760001661,scrambled40,25,3.019390995070951,5
0410-f524277c-690f-4db1-8415-a8b202362033,3605-55cf814e-89d1-43c8-bb60-d15358fb95af,4,-1.189899033413335,-0.9216625201609255,-0.2682365132524095,-1.8080748760001661,scrambled40,26,1.5398383627477568,5
0410-f524277c-690f-4db1-8415-a8b202362033,9579-64056aaf-1bd8-4eeb-bb84-a2676a1f81f9,5,0.814141443914387,0.52858262842273,0.28555881549165707,-1.8080748760001661,scrambled40,27,2.0936336914918234,6
0410-f524277c-690f-4db1-8415-a8b202362033,9579-64056aaf-1bd8-4eeb-bb84-a2676a1f81f9,5,0.814141443914387,0.262925241070517,0.5512162028438701,-1.8080748760001661,scrambled40,28,2.359291078844036,6
0410-f524277c-690f-4db1-8415-a8b202362033,9579-64056aaf-1bd8-4eeb-bb84-a2676a1f81f9,5,0.814141443914387,-0.4413989759672718,1.2555404198816589,-1.8080748760001661,scrambled40,29,3.0636152958818252,6
0410-f524277c-690f-4db1-8415-a8b202362033,9579-64056aaf-1bd8-4eeb-bb84-a2676a1f81f9,5,-1.189899033413335,1.3598749862227628,-2.549774019636098,-1.8080748760001661,scrambled40,31,-0.7416991436359317,6
0410-f524277c-690f-4db1-8415-a8b202362033,9834-afb725fc-5a68-4c1b-a6f1-5f45c61e3776,6,-1.189899033413335,0.26797370180946734,-1.4578727352228023,-1.8080748760001661,scrambled40,32,0.3502021407773639,7
0410-f524277c-690f-4db1-8415-a8b202362033,9834-afb725fc-5a68-4c1b-a6f1-5f45c61e3776,6,0.814141443914387,-0.01773813198799043,0.8318795759023775,-1.8080748760001661,scrambled40,33,2.6399544519025437,7
0410-f524277c-690f-4db1-8415-a8b202362033,9834-afb725fc-5a68-4c1b-a6f1-5f45c61e3776,6,0.814141443914387,-1.5361951090446706,2.3503365529590576,-1.8080748760001661,scrambled40,34,4.158411428959224,7
0410-f524277c-690f-4db1-8415-a8b202362033,9834-afb725fc-5a68-4c1b-a6f1-5f45c61e3776,6,0.814141443914387,0.5933782601659608,0.22076318374842618,-1.8080748760001661,scrambled40,35,2.028838059748592,7
0410-f524277c-690f-4db1-8415-a8b202362033,6201-c143f72d-cec1-44ff-a70c-842cb999be22,7,-1.189899033413335,-0.504499288366882,-0.6853997450464531,-1.8080748760001661,scrambled40,37,1.122675130953713,8
0410-f524277c-690f-4db1-8415-a8b202362033,6201-c143f72d-cec1-44ff-a70c-842cb999be22,7,0.814141443914387,-1.109296097273217,1.9234375411876041,-1.8080748760001661,scrambled40,39,3.73151241718777,8
0410-f524277c-690f-4db1-8415-a8b202362033,6201-c143f72d-cec1-44ff-a70c-842cb999be22,7,-1.189899033413335,-0.04437108100610537,-1.1455279524072297,-1.8080748760001661,scrambled40,40,0.6625469235929364,8
0410-f524277c-690f-4db1-8415-a8b202362033,6201-c143f72d-cec1-44ff-a70c-842cb999be22,7,-1.189899033413335,1.0260171462319083,-2.2159161796452436,-1.8080748760001661,scrambled40,42,-0.4078413036450774,8
0434-31b4046b-ec1f-4077-94cc-608fe69ff530,7741-1061961c-2778-483e-97de-15fc47b71ca5,0,0.6156902039757508,0.7755047490426786,-0.15981454506692783,-0.8881469367780183,yoked,1,0.7283323917110904,1
0434-31b4046b-ec1f-4077-94cc-608fe69ff530,7741-1061961c-2778-483e-97de-15fc47b71ca5,0,-1.573430521271363,0.2598467665424338,-1.8332772878137968,-0.8881469367780183,yoked,2,-0.9451303510357786,1
0434-31b4046b-ec1f-4077-94cc-608fe69ff530,7741-1061961c-2778-483e-97de-15fc47b71ca5,0,0.6156902039757508,1.019769001077497,-0.4040787971017461,-0.8881469367780183,yoked,6,0.48406813967627216,1
0434-31b4046b-ec1f-4077-94cc-608fe69ff530,7741-1061961c-2778-483e-97de-15fc47b71ca5,0,-1.573430521271363,-0.41801340414175425,-1.1554171171296088,-0.8881469367780183,yoked,8,-0.26727018035159056,1
0434-31b4046b-ec1f-4077-94cc-608fe69ff530,7741-1061961c-2778-483e-97de-15fc47b71ca5,1,0.6156902039757508,0.7615320467643409,-0.14584184278859014,-0.8881469367780183,yoked,9,0.7423050939894281,2
0434-31b4046b-ec1f-4077-94cc-608fe69ff530,7741-1061961c-2778-483e-97de-15fc47b71ca5,1,0.6156902039757508,2.2744463620802438,-1.658756158104493,-0.8881469367780183,yoked,10,-0.7706092213264747,2
0434-31b4046b-ec1f-4077-94cc-608fe69ff530,7741-1061961c-2778-483e-97de-15fc47b71ca5,1,0.6156902039757508,-1.0445383041010061,1.660228508076757,-0.8881469367780183,yoked,11,2.5483754448547753,2
0434-31b4046b-ec1f-4077-94cc-608fe69ff530,7741-1061961c-2778-483e-97de-15fc47b71ca5,1,0.6156902039757508,0.9155109543138861,-0.29982075033813527,-0.8881469367780183,yoked,12,0.588326186439883,2
0434-31b4046b-ec1f-4077-94cc-608fe69ff530,7741-1061961c-2778-483e-97de-15fc47b71ca5,2,0.6156902039757508,-1.063545193533375,1.6792353975091259,-0.8881469367780183,yoked,13,2.567382334287144,3
0434-31b4046b-ec1f-4077-94cc-608fe69ff530,7741-1061961c-2778-483e-97de-15fc47b71ca5,2,0.6156902039757508,-0.09651368146541706,0.7122038854411679,-0.8881469367780183,yoked,14,1.6003508222191862,3
0434-31b4046b-ec1f-4077-94cc-608fe69ff530,7741-1061961c-2778-483e-97de-15fc47b71ca5,2,-1.573430521271363,1.062468055353001,-2.6358985766243643,-0.8881469367780183,yoked,15,-1.7477516398463462,3
0434-31b4046b-ec1f-4077-94cc-608fe69ff530,7741-1061961c-2778-483e-97de-15fc47b71ca5,2,-1.573430521271363,1.5597063240152658,-3.1331368452866286,-0.8881469367780183,yoked,16,-2.2449899085086105,3
0434-31b4046b-ec1f-4077-94cc-608fe69ff530,7741-1061961c-2778-483e-97de-15fc47b71ca5,3,0.6156902039757508,-0.45351159692202325,1.069201800897774,-0.8881469367780183,yoked,18,1.957348737675792,4
0434-31b4046b-ec1f-4077-94cc-608fe69ff530,7741-1061961c-2778-483e-97de-15fc47b71ca5,3,-1.573430521271363,-0.8816916966321691,-0.691738824639194,-0.8881469367780183,yoked,20,0.19640811213882425,4
0434-31b4046b-ec1f-4077-94cc-608fe69ff530,7741-1061961c-2778-483e-97de-15fc47b71ca5,3,-1.573430521271363,-0.08817939157264662,-1.4852511296987165,-0.8881469367780183,yoked,21,-0.5971041929206983,4
0434-31b4046b-ec1f-4077-94cc-608fe69ff530,7741-1061961c-2778-483e-97de-15fc47b71ca5,3,0.6156902039757508,0.49948460831596736,0.11620559565978344,-0.8881469367780183,yoked,22,1.0043525324378018,4
0434-31b4046b-ec1f-4077-94cc-608fe69ff530,7741-1061961c-2778-483e-97de-15fc47b71ca5,4,0.6156902039757508,-1.0001260580095201,1.615816261985271,-0.8881469367780183,yoked,23,2.503963198763289,5
0434-31b4046b-ec1f-4077-94cc-608fe69ff530,7741-1061961c-2778-483e-97de-15fc47b71ca5,4,0.6156902039757508,-1.6518383613003949,2.2675285652761454,-0.8881469367780183,yoked,24,3.1556755020541636,5
0434-31b4046b-ec1f-4077-94cc-608fe69ff530,7741-1061961c-2778-483e-97de-15fc47b71ca5,4,0.6156902039757508,0.3068167077008826,0.3088734962748682,-0.8881469367780183,yoked,25,1.1970204330528864,5
0434-31b4046b-ec1f-4077-94cc-608fe69ff530,7741-1061961c-2778-483e-97de-15fc47b71ca5,4,0.6156902039757508,1.3107523007437452,-0.6950620967679944,-0.8881469367780183,yoked,26,0.1930848400100239,5
0434-31b4046b-ec1f-4077-94cc-608fe69ff530,7741-1061961c-2778-483e-97de-15fc47b71ca5,5,-1.573430521271363,-1.2420961851863268,-0.33133433608503626,-0.8881469367780183,yoked,27,0.556812600692982,6
0434-31b4046b-ec1f-4077-94cc-608fe69ff530,7741-1061961c-2778-483e-97de-15fc47b71ca5,5,0.6156902039757508,1.391957142398819,-0.7762669384230683,-0.8881469367780183,yoked,28,0.11187999835495,6
0434-31b4046b-ec1f-4077-94cc-608fe69ff530,7741-1061961c-2778-483e-97de-15fc47b71ca5,5,0.6156902039757508,-1.2420961851863268,1.8577863891620776,-0.8881469367780183,yoked,29,2.7459333259400958,6
0434-31b4046b-ec1f-4077-94cc-608fe69ff530,7741-1061961c-2778-483e-97de-15fc47b71ca5,5,-1.573430521271363,-0.5243926115379979,-1.0490379097333653,-0.8881469367780183,yoked,30,-0.16089097295534704,6
0434-31b4046b-ec1f-4077-94cc-608fe69ff530,7741-1061961c-2778-483e-97de-15fc47b71ca5,6,0.6156902039757508,-0.7345275990159966,1.3502178029917475,-0.8881469367780183,yoked,31,2.2383647397697657,7
0434-31b4046b-ec1f-4077-94cc-608fe69ff530,7741-1061961c-2778-483e-97de-15fc47b71ca5,6,0.6156902039757508,0.33378349185025086,0.28190671212549995,-0.8881469367780183,yoked,32,1.1700536489035183,7
0434-31b4046b-ec1f-4077-94cc-608fe69ff530,7741-1061961c-2778-483e-97de-15fc47b71ca5,6,0.6156902039757508,-1.1364146672097912,1.752104871185542,-0.8881469367780183,yoked,33,2.64025180796356,7
0434-31b4046b-ec1f-4077-94cc-608fe69ff530,7741-1061961c-2778-483e-97de-15fc47b71ca5,6,0.6156902039757508,-0.9338529556478364,1.5495431596235871,-0.8881469367780183,yoked,35,2.4376900964016053,7
0434-31b4046b-ec1f-4077-94cc-608fe69ff530,7741-1061961c-2778-483e-97de-15fc47b71ca5,7,0.6156902039757508,0.09643535345338577,0.5192548505223651,-0.8881469367780183,yoked,36,1.4074017873003832,8
0434-31b4046b-ec1f-4077-94cc-608fe69ff530,7741-1061961c-2778-483e-97de-15fc47b71ca5,7,0.6156902039757508,-1.0594639060910072,1.675154110066758,-0.8881469367780183,yoked,38,2.563301046844776,8
0434-31b4046b-ec1f-4077-94cc-608fe69ff530,7741-1061961c-2778-483e-97de-15fc47b71ca5,7,0.6156902039757508,0.18244220942041348,0.43324799455533736,-0.8881469367780183,yoked,41,1.3213949313333555,8
0434-31b4046b-ec1f-4077-94cc-608fe69ff530,7741-1061961c-2778-483e-97de-15fc47b71ca5,7,-1.573430521271363,0.8203457244807881,-2.393776245752151,-0.8881469367780183,yoked,43,-1.5056293089741328,8
0477-00569312-7d01-47be-a0ac-b0d3b21f1cdf,7341-3634e0b6-be5a-407f-bcd4-183cb00620a7,0,0.0,2.799289875836037,-2.799289875836037,-1.6915093154751646,yoked,0,-1.1077805603608724,1
0477-00569312-7d01-47be-a0ac-b0d3b21f1cdf,7341-3634e0b6-be5a-407f-bcd4-183cb00620a7,0,0.0,1.326988826884359,-1.326988826884359,-1.6915093154751646,yoked,6,0.36452048859080555,1
0477-00569312-7d01-47be-a0ac-b0d3b21f1cdf,7341-3634e0b6-be5a-407f-bcd4-183cb00620a7,0,0.0,0.3456273595116794,-0.3456273595116794,-1.6915093154751646,yoked,7,1.3458819559634851,1
0477-00569312-7d01-47be-a0ac-b0d3b21f1cdf,7341-3634e0b6-be5a-407f-bcd4-183cb00620a7,0,0.0,2.294131199668574,-2.294131199668574,-1.6915093154751646,yoked,8,-0.6026218841934092,1
0477-00569312-7d01-47be-a0ac-b0d3b21f1cdf,7341-3634e0b6-be5a-407f-bcd4-183cb00620a7,1,0.0,0.4890419674442004,-0.4890419674442004,-1.6915093154751646,yoked,9,1.2024673480309642,2
0477-00569312-7d01-47be-a0ac-b0d3b21f1cdf,7341-3634e0b6-be5a-407f-bcd4-183cb00620a7,1,0.0,1.7928481935740277,-1.7928481935740277,-1.6915093154751646,yoked,10,-0.1013388780988631,2
0477-00569312-7d01-47be-a0ac-b0d3b21f1cdf,7341-3634e0b6-be5a-407f-bcd4-183cb00620a7,1,0.0,0.379044049472012,-0.379044049472012,-1.6915093154751646,yoked,11,1.3124652660031526,2
0477-00569312-7d01-47be-a0ac-b0d3b21f1cdf,7341-3634e0b6-be5a-407f-bcd4-183cb00620a7,1,0.0,0.35051412241211055,-0.35051412241211055,-1.6915093154751646,yoked,12,1.340995193063054,2
0477-00569312-7d01-47be-a0ac-b0d3b21f1cdf,7341-3634e0b6-be5a-407f-bcd4-183cb00620a7,2,0.0,0.7868925535928651,-0.7868925535928651,-1.6915093154751646,yoked,13,0.9046167618822994,3
0477-00569312-7d01-47be-a0ac-b0d3b21f1cdf,7341-3634e0b6-be5a-407f-bcd4-183cb00620a7,2,0.0,1.0060515898636084,-1.0060515898636084,-1.6915093154751646,yoked,14,0.6854577256115562,3
0477-00569312-7d01-47be-a0ac-b0d3b21f1cdf,7341-3634e0b6-be5a-407f-bcd4-183cb00620a7,2,0.0,-0.6362494921150164,0.6362494921150164,-1.6915093154751646,yoked,16,2.3277588075901807,3
0477-00569312-7d01-47be-a0ac-b0d3b21f1cdf,7341-3634e0b6-be5a-407f-bcd4-183cb00620a7,2,0.0,0.5115405618959034,-0.5115405618959034,-1.6915093154751646,yoked,17,1.1799687535792613,3
0477-00569312-7d01-47be-a0ac-b0d3b21f1cdf,7341-3634e0b6-be5a-407f-bcd4-183cb00620a7,3,0.0,-0.0434247860427533,0.0434247860427533,-1.6915093154751646,yoked,18,1.7349341015179178,4
0477-00569312-7d01-47be-a0ac-b0d3b21f1cdf,7341-3634e0b6-be5a-407f-bcd4-183cb00620a7,3,0.0,-0.50597577188346,0.50597577188346,-1.6915093154751646,yoked,19,2.1974850873586247,4
0477-00569312-7d01-47be-a0ac-b0d3b21f1cdf,7341-3634e0b6-be5a-407f-bcd4-183cb00620a7,3,0.0,-1.2015528723533266,1.2015528723533266,-1.6915093154751646,yoked,20,2.893062187828491,4
0477-00569312-7d01-47be-a0ac-b0d3b21f1cdf,7341-3634e0b6-be5a-407f-bcd4-183cb00620a7,3,0.0,0.2548306887356871,-0.2548306887356871,-1.6915093154751646,yoked,21,1.4366786267394775,4
0477-00569312-7d01-47be-a0ac-b0d3b21f1cdf,7341-3634e0b6-be5a-407f-bcd4-183cb00620a7,4,0.0,-0.347450779393718,0.347450779393718,-1.6915093154751646,yoked,22,2.0389600948688824,5
0477-00569312-7d01-47be-a0ac-b0d3b21f1cdf,7341-3634e0b6-be5a-407f-bcd4-183cb00620a7,4,0.0,-1.183028870266504,1.183028870266504,-1.6915093154751646,yoked,23,2.8745381857416685,5
0477-00569312-7d01-47be-a0ac-b0d3b21f1cdf,7341-3634e0b6-be5a-407f-bcd4-183cb00620a7,4,0.0,-0.6799319908359842,0.6799319908359842,-1.6915093154751646,yoked,24,2.371441306311149,5
0477-00569312-7d01-47be-a0ac-b0d3b21f1cdf,7341-3634e0b6-be5a-407f-bcd4-183cb00620a7,4,0.0,-0.6700631180865709,0.6700631180865709,-1.6915093154751646,yoked,25,2.3615724335617356,5
0477-00569312-7d01-47be-a0ac-b0d3b21f1cdf,7341-3634e0b6-be5a-407f-bcd4-183cb00620a7,5,0.0,-0.4608936290946011,0.4608936290946011,-1.6915093154751646,yoked,27,2.152402944569766,6
0477-00569312-7d01-47be-a0ac-b0d3b21f1cdf,7341-3634e0b6-be5a-407f-bcd4-183cb00620a7,5,0.0,-0.03212648307071761,0.03212648307071761,-1.6915093154751646,yoked,28,1.7236357985458821,6
0477-00569312-7d01-47be-a0ac-b0d3b21f1cdf,7341-3634e0b6-be5a-407f-bcd4-183cb00620a7,5,0.0,-1.2026465450611032,1.2026465450611032,-1.6915093154751646,yoked,29,2.8941558605362676,6
0477-00569312-7d01-47be-a0ac-b0d3b21f1cdf,7341-3634e0b6-be5a-407f-bcd4-183cb00620a7,5,0.0,-0.3253311299811062,0.3253311299811062,-1.6915093154751646,yoked,30,2.0168404454562707,6
0477-00569312-7d01-47be-a0ac-b0d3b21f1cdf,7341-3634e0b6-be5a-407f-bcd4-183cb00620a7,6,0.0,-1.0055679731831584,1.0055679731831584,-1.6915093154751646,yoked,31,2.697077288658323,7
0477-00569312-7d01-47be-a0ac-b0d3b21f1cdf,7341-3634e0b6-be5a-407f-bcd4-183cb00620a7,6,0.0,-0.23028295188533845,0.23028295188533845,-1.6915093154751646,yoked,33,1.921792267360503,7
0477-00569312-7d01-47be-a0ac-b0d3b21f1cdf,7341-3634e0b6-be5a-407f-bcd4-183cb00620a7,6,0.0,-0.6799319908359842,0.6799319908359842,-1.6915093154751646,yoked,34,2.371441306311149,7
0477-00569312-7d01-47be-a0ac-b0d3b21f1cdf,7341-3634e0b6-be5a-407f-bcd4-183cb00620a7,6,0.0,-0.8287274974551313,0.8287274974551313,-1.6915093154751646,yoked,35,2.520236812930296,7
0477-00569312-7d01-47be-a0ac-b0d3b21f1cdf,7341-3634e0b6-be5a-407f-bcd4-183cb00620a7,7,0.0,-0.2669721371082257,0.2669721371082257,-1.6915093154751646,yoked,36,1.9584814525833902,8
0477-00569312-7d01-47be-a0ac-b0d3b21f1cdf,7341-3634e0b6-be5a-407f-bcd4-183cb00620a7,7,0.0,-1.1754386563306223,1.1754386563306223,-1.6915093154751646,yoked,38,2.8669479718057866,8
0477-00569312-7d01-47be-a0ac-b0d3b21f1cdf,7341-3634e0b6-be5a-407f-bcd4-183cb00620a7,7,0.0,-0.46006593432913107,0.46006593432913107,-1.6915093154751646,yoked,39,2.1515752498042957,8
0477-00569312-7d01-47be-a0ac-b0d3b21f1cdf,7341-3634e0b6-be5a-407f-bcd4-183cb00620a7,7,0.0,-0.4011383795785662,0.4011383795785662,-1.6915093154751646,yoked,44,2.092647695053731,8
0545-2382df9a-4194-4ec7-911b-25209593d4a2,7341-3634e0b6-be5a-407f-bcd4-183cb00620a7,0,0.7623959841019966,-0.20109349562466933,0.963489479726666,-1.0197754142353226,scrambled40,0,1.9832648939619886,1
0545-2382df9a-4194-4ec7-911b-25209593d4a2,7341-3634e0b6-be5a-407f-bcd4-183cb00620a7,0,0.7623959841019966,1.654984084752268,-0.8925881006502715,-1.0197754142353226,scrambled40,6,0.1271873135850511,1
0545-2382df9a-4194-4ec7-911b-25209593d4a2,7341-3634e0b6-be5a-407f-bcd4-183cb00620a7,0,-1.2706599735033277,0.8818920695101234,-2.152552043013451,-1.0197754142353226,scrambled40,7,-1.1327766287781285,1
0545-2382df9a-4194-4ec7-911b-25209593d4a2,7341-3634e0b6-be5a-407f-bcd4-183cb00620a7,0,-1.2706599735033277,0.7267910195009177,-1.9974509930042454,-1.0197754142353226,scrambled40,8,-0.9776755787689229,1
0545-2382df9a-4194-4ec7-911b-25209593d4a2,5947-794501d9-b90d-4151-a7c9-149c399c5df3,1,0.7623959841019966,-0.34215690938671905,1.1045528934887157,-1.0197754142353226,scrambled40,9,2.1243283077240385,2
0545-2382df9a-4194-4ec7-911b-25209593d4a2,5947-794501d9-b90d-4151-a7c9-149c399c5df3,1,0.7623959841019966,-0.290391608287423,1.0527875923894197,-1.0197754142353226,scrambled40,10,2.0725630066247422,2
0545-2382df9a-4194-4ec7-911b-25209593d4a2,5947-794501d9-b90d-4151-a7c9-149c399c5df3,1,0.7623959841019966,0.4662440686825663,0.2961519154194303,-1.0197754142353226,scrambled40,11,1.315927329654753,2
0545-2382df9a-4194-4ec7-911b-25209593d4a2,5947-794501d9-b90d-4151-a7c9-149c399c5df3,1,-1.2706599735033277,0.9930935052144216,-2.2637534787177493,-1.0197754142353226,scrambled40,12,-1.2439780644824268,2
0545-2382df9a-4194-4ec7-911b-25209593d4a2,5604-bea38fc3-1848-4767-93bf-6c725acd45fe,2,-1.2706599735033277,0.5089550559675552,-1.7796150294708828,-1.0197754142353226,scrambled40,13,-0.7598396152355602,3
0545-2382df9a-4194-4ec7-911b-25209593d4a2,5604-bea38fc3-1848-4767-93bf-6c725acd45fe,2,-1.2706599735033277,0.5613027602483333,-1.831962733751661,-1.0197754142353226,scrambled40,14,-0.8121873195163385,3
0545-2382df9a-4194-4ec7-911b-25209593d4a2,5604-bea38fc3-1848-4767-93bf-6c725acd45fe,2,0.7623959841019966,-1.3514967723488573,2.113892756450854,-1.0197754142353226,scrambled40,15,3.1336681706861764,3
0545-2382df9a-4194-4ec7-911b-25209593d4a2,5604-bea38fc3-1848-4767-93bf-6c725acd45fe,2,-1.2706599735033277,0.43416547083619117,-1.704825444339519,-1.0197754142353226,scrambled40,16,-0.6850500301041964,3
0545-2382df9a-4194-4ec7-911b-25209593d4a2,6927-b3625f39-36ea-4dad-95d4-86d37d2d6374,3,0.7623959841019966,1.963635007068945,-1.2012390229669485,-1.0197754142353226,scrambled40,18,-0.18146360873162592,4
0545-2382df9a-4194-4ec7-911b-25209593d4a2,6927-b3625f39-36ea-4dad-95d4-86d37d2d6374,3,0.7623959841019966,-0.1765336766032831,0.9389296607052797,-1.0197754142353226,scrambled40,20,1.9587050749406023,4
0545-2382df9a-4194-4ec7-911b-25209593d4a2,6927-b3625f39-36ea-4dad-95d4-86d37d2d6374,3,0.7623959841019966,-1.1012361292424402,1.863632113344437,-1.0197754142353226,scrambled40,21,2.8834075275797595,4
0545-2382df9a-4194-4ec7-911b-25209593d4a2,6927-b3625f39-36ea-4dad-95d4-86d37d2d6374,3,-1.2706599735033277,-1.5431796695901348,0.27251969608680704,-1.0197754142353226,scrambled40,22,1.2922951103221296,4
0545-2382df9a-4194-4ec7-911b-25209593d4a2,8707-1729a3f9-2a95-41fa-958b-10f02f3817e3,4,-1.2706599735033277,0.9894096026055484,-2.2600695761088763,-1.0197754142353226,scrambled40,23,-1.2402941618735537,5
0545-2382df9a-4194-4ec7-911b-25209593d4a2,8707-1729a3f9-2a95-41fa-958b-10f02f3817e3,4,0.7623959841019966,-1.1002633421031331,1.8626593262051299,-1.0197754142353226,scrambled40,24,2.8824347404404524,5
0545-2382df9a-4194-4ec7-911b-25209593d4a2,8707-1729a3f9-2a95-41fa-958b-10f02f3817e3,4,0.7623959841019966,-1.7240314432649189,2.4864274273669156,-1.0197754142353226,scrambled40,25,3.506202841602238,5
0545-2382df9a-4194-4ec7-911b-25209593d4a2,8707-1729a3f9-2a95-41fa-958b-10f02f3817e3,4,0.7623959841019966,0.614033954155139,0.14836202994685765,-1.0197754142353226,scrambled40,26,1.1681374441821801,5
0545-2382df9a-4194-4ec7-911b-25209593d4a2,4739-5bf26240-8a66-496d-9913-5613608e4ed0,5,0.7623959841019966,-0.17875908220998638,0.941155066311983,-1.0197754142353226,scrambled40,27,1.9609304805473056,6
0545-2382df9a-4194-4ec7-911b-25209593d4a2,4739-5bf26240-8a66-496d-9913-5613608e4ed0,5,0.7623959841019966,0.2166268181657343,0.5457691659362623,-1.0197754142353226,scrambled40,29,1.565544580171585,6
0545-2382df9a-4194-4ec7-911b-25209593d4a2,4739-5bf26240-8a66-496d-9913-5613608e4ed0,5,-1.2706599735033277,-1.5123029172287397,0.24164294372541195,-1.0197754142353226,scrambled40,30,1.2614183579607345,6
0545-2382df9a-4194-4ec7-911b-25209593d4a2,4739-5bf26240-8a66-496d-9913-5613608e4ed0,5,-1.2706599735033277,-0.8845086400780275,-0.38615133342530017,-1.0197754142353226,scrambled40,31,0.6336240808100224,6
0545-2382df9a-4194-4ec7-911b-25209593d4a2,4071-d4fa2274-0805-41c8-8ebc-819ddc2b5c56,6,-1.2706599735033277,-1.3609339368868978,0.09027396338357008,-1.0197754142353226,scrambled40,32,1.1100493776188927,7
0545-2382df9a-4194-4ec7-911b-25209593d4a2,4071-d4fa2274-0805-41c8-8ebc-819ddc2b5c56,6,0.7623959841019966,0.41863483478460084,0.34376114931739576,-1.0197754142353226,scrambled40,33,1.3635365635527184,7
0545-2382df9a-4194-4ec7-911b-25209593d4a2,4071-d4fa2274-0805-41c8-8ebc-819ddc2b5c56,6,0.7623959841019966,-0.819403795104269,1.5817997792062655,-1.0197754142353226,scrambled40,34,2.601575193441588,7
